Folder: PET-Plastisphere/1_FTIR_raw

Note: README.md
# A multi-OMIC characterisation of biodegradation and microbial community succession within the PET Plastisphere
### Robyn J. Wright, Rafael Bosch, Matthew I. Gibson and Joseph A. Christie-Oleza

This is the Github repository for all code used to produce the analyses in [A multi-OMIC characterisation of biodegradation and microbial community succession within the PET Plastisphere](https://www.microbiologyresearch.org/content/journal/acmi/10.1099/acmi.ac2019.po0168)</br>
<i>Note that this link will be updated with a link to the full paper once published.</i></br>

## This repository has the following sections:</br>
### 1. FTIR with raw plastics**</br></br>
### 2. Community succession**</br>
  a) Fig. S2 DNA yields of all samples used for amplicon sequencing</br>
  b) Basic analysis (DADA2 in R)</br>
  c) Fig. S3 stacked bar</br>
  d) Fig. S4 diversity</br>
  e) Fig. 1 NMDS, principal response curve and heatmap</br>
  f) Table S1. ANOSIM and PERMANOVA</br>
  g) Fig. 2 colonisation dynamics</br>
  h) PICRUSt2</br>
  i) Community metabolomics</br></br>
### 3. Isolates**</br>
  a) Genomic analysis</br>
  b) Growth of isolates</br>
  c) Proteomic analysis of isolates</br>
  d) Metabolomic analysis of isolates</br></br>
### 4. Community and isolates (5 month growth experiment)**</br>
  a) Growth at three months and FTIR analysis at five months</br>
### 5. All code used for this chapter of my PhD thesis**

File: corrected_spectra_r.txt
.wavelength	spc
650	1.56795
852	1.78957
1054	2.48973
1256	3.65397
1458	0.493524
1660	1.28247
1862	-0.0249054
2064	0.117393
2266	0.328616
2468	0.486915
2670	0.637441
2872	0.83715
3074	0.881243
3276	0.925284
3478	1.00585
3680	1.21067
3882	1.25087
733	1.8857
935	1.18042
1137	1.51985
1339	1.52608
1541	0.166173
1743	0.785163
1945	0.0804077
2147	0.14186
2349	0.452173
2551	0.596266
2753	0.774146
2955	1.15559
3157	0.995389
3359	1.1095
3561	1.25997
3763	1.38808
3965	1.51453
816	1.08262
1018	3.25229
1220	3.29083
1422	0.0913658
1624	0.583667
1826	0.0267096
2028	0.0169365
2230	0.250085
2432	0.449183
2634	0.62125
2836	0.787757
3038	0.885858
3240	0.976893
3442	1.1452
3644	1.1966
3846	1.30259
697	3.00658
899	1.46981
1101	3.99644
1303	0.80073
1505	0.632932
1707	4.33843
1909	0.0230963
2111	0.226136
2313	0.370433
2515	0.477499
2717	0.610388
2919	0.818791
3121	0.788448
3323	0.870293
3525	0.934929
3727	0.992429
3929	1.10471
780	1.01169
982	2.01199
1184	1.41422
1386	0.515289
1588	0.397953
1790	0.006187
1992	0.043333
2194	0.150287
2396	0.408962
2598	0.539598
2800	0.687312
3002	0.870439
3204	0.842275
3406	0.969286
3608	1.03565
3810	1.09586
661	1.7497
863	2.10313
1065	3.25075
1267	3.62705
1469	0.577459
1671	1.77132
1873	-0.04768
2075	0.150106
2277	0.317208
2479	0.43066
2681	0.551064
2883	0.745149
3085	0.773
3287	0.790554
3489	0.868538
3691	0.997717
3893	1.0541
744	0.364431
946	2.02306
1148	1.18723
1350	0.734641
1552	0.280446
1754	0.161902
1956	0.0303254
2158	0.0746318
2360	0.334448
2562	0.457339
2764	0.56252
2966	0.915453
3168	0.650469
3370	0.701133
3572	0.81509
3774	0.840704
3976	0.90216
827	1.34794
1029	2.17952
1231	4.04202
1433	0.205883
1635	0.716133
1837	-0.00551036
2039	-0.00200942
2241	0.265609
2443	0.444482
2645	0.59985
2847	0.754269
3049	0.850978
3251	0.901056
3453	1.01981
3655	1.14835
3857	1.21947
708	3.1682
910	1.01938
1112	3.18899
1314	0.462286
1516	0.0610952
1718	3.86726
1920	0.0252773
2122	0.18168
2324	0.431057
2526	0.537151
2728	0.693636
2930	0.927247
3132	0.932822
3334	1.03673
3536	1.16334
3738	1.25167
3940	1.35251
791	1.03375
993	1.64715
1195	1.53932
1397	0.697169
1599	0.713835
1801	0.0236432
2003	-0.027021
2205	0.170362
2407	0.485865
2609	0.657402
2811	0.857181
3013	1.0301
3215	1.21025
3417	1.28286
3619	1.29456
3821	1.38271
672	1.9461
874	2.11065
1076	3.58162
1278	2.14991
1480	0.252451
1682	2.14193
1884	0.00442641
2086	0.196338
2288	0.406677
2490	0.526906
2692	0.686539
2894	0.765215
3096	0.915359
3298	0.978546
3500	1.05742
3702	1.22006
3904	1.40586
755	0.154486
957	1.80554
1159	0.558772
1361	0.216303
1563	0.520184
1765	-0.0184939
1967	-0.0013121
2169	0.106463
2371	0.504454
2573	0.592284
2775	0.748946
2977	0.97408
3179	0.932414
3381	1.00811
3583	1.14047
3785	1.28207
3987	1.38002
838	1.70618
1040	2.30441
1242	4.22244
1444	0.400679
1646	0.851315
1848	-0.0101036
2050	0.0168638
2252	0.284947
2454	0.462597
2656	0.640865
2858	0.828161
3060	0.923224
3262	0.948402
3464	1.06098
3666	1.1732
3868	1.27545
719	4.80896
921	1.45921
1123	3.41145
1325	0.301212
1527	0.243668
1729	2.67623
1931	0.0533407
2133	0.119477
2335	0.377044
2537	0.485917
2739	0.615606
2941	0.847037
3143	0.756748
3345	0.847841
3547	0.923981
3749	0.97211
3951	1.05185
802	0.873876
1004	2.25551
1206	2.36108
1408	1.36005
1610	0.3119
1812	0.210801
2014	0.125042
2216	0.397622
2418	0.617389
2620	0.746564
2822	0.725444
3024	0.839839
3226	0.770792
3428	0.990219
3630	1.50858
3832	1.60821
683	2.46315
885	1.42932
1087	4.43745
1289	1.75428
1491	0.103628
1693	2.90836
1895	-0.00270107
2097	0.181911
2299	0.367843
2501	0.467918
2703	0.585096
2905	0.799257
3107	0.781332
3309	0.81541
3511	0.909188
3713	0.998298
3915	1.0969
766	0.577044
968	2.42492
1170	1.11334
1372	0.485517
1574	0.517382
1776	-0.0355951
1978	-0.0379957
2180	0.132095
2382	0.429096
2584	0.530092
2786	0.657652
2988	0.865387
3190	0.780648
3392	0.868735
3594	1.02093
3796	1.1089
3998	1.19731
849	2.11293
1051	2.74595
1253	4.30286
1455	0.59315
1657	1.29604
1859	-0.0426315
2061	0.0958867
2263	0.265916
2465	0.41114
2667	0.54361
2869	0.71394
3071	0.776364
3273	0.769358
3475	0.866102
3677	0.998757
3879	1.05638
4000	1.10598

File: Raw_plastics.csv
Wavenumber (cm^-1),LC,LC,LC,LC,LC,LC,LC,LC,LC,PET,PET,PET,PET,PET,PET,PET,PET,PET,WPET,WPET,WPET,WPET,WPET,WPET,WPET,WPET,WPET
3999.43,104.32,102.26,101.26,104.32,102.26,101.26,104.32,102.26,101.26,96.7,96.62,98,95.45,97.32,98.7,97.67,98.28,96.82,98.42,99.65,99.65,97.08,96.28,101.3,96.21,97.53,96.62
3939.8,104.07,102.05,100.97,104.07,102.05,100.97,104.07,102.05,100.97,96.82,96.69,98.1,95.48,97.4,98.75,97.72,98.34,96.96,98.39,99.56,99.56,97.12,96.34,101.14,96.26,97.46,96.65
3880.16,104.01,102.17,101.16,104.01,102.17,101.16,104.01,102.17,101.16,96.82,96.67,98.13,95.56,97.51,98.73,97.72,98.35,97,98.6,99.58,99.58,97.3,96.39,101.15,96.28,97.45,96.8
3820.52,103.48,101.56,100.86,103.48,101.56,100.86,103.48,101.56,100.86,96.3,96.2,98.11,95.54,97.44,98.64,97.57,98.21,96.85,98.26,99.28,99.28,97.02,96.21,100.69,96.16,97.32,96.41
3760.88,104.02,101.97,101.16,104.02,101.97,101.16,104.02,101.97,101.16,96.37,96.44,98.01,95.35,97.27,98.6,97.55,98.24,96.75,98.28,99.33,99.33,96.98,96.23,100.77,96.21,97.29,96.47
3701.25,103.82,101.97,100.99,103.82,101.97,100.99,103.82,101.97,100.99,96.68,96.66,98.18,95.58,97.4,98.62,97.63,98.28,96.97,98.35,99.42,99.42,97.22,96.31,100.93,96.29,97.42,96.6
3641.61,103.63,101.67,100.58,103.63,101.67,100.58,103.63,101.67,100.58,96.53,96.66,97.93,95.23,97.31,98.56,97.57,97.97,96.83,98.09,99.28,99.28,97,96.1,100.94,96.03,97.26,96.44
3581.97,103.98,101.75,100.68,103.98,101.75,100.68,103.98,101.75,100.68,96.48,96.56,98.03,95.54,97.38,98.65,97.67,98.18,97.01,98.06,99.42,99.42,97.14,96.11,101.47,96.16,97.4,96.5
3522.33,103.83,101.54,100.43,103.83,101.54,100.43,103.83,101.54,100.43,96.55,96.58,98.14,95.45,97.39,98.62,97.61,98.06,96.95,97.94,99.46,99.46,97.17,96.11,101.85,96.24,97.45,96.68
3462.7,103.83,101.34,100.47,103.83,101.34,100.47,103.83,101.34,100.47,96.77,96.72,98.07,95.43,97.39,98.52,97.57,97.99,97.03,97.62,99.6,99.6,97.09,96.16,102.39,96.13,97.35,96.57
3403.06,103.71,101.21,100.29,103.71,101.21,100.29,103.71,101.21,100.29,96.34,96.37,97.91,95.07,97.21,98.31,97.42,97.89,96.76,97.16,99.24,99.24,96.93,95.76,102.4,96.05,97.28,96.42
3343.42,103.25,100.61,100.15,103.25,100.61,100.15,103.25,100.61,100.15,96.49,96.66,98.18,95.47,97.44,98.59,97.68,98.04,97.01,96.88,99.2,99.2,97.17,95.85,102.61,96.18,97.43,96.59
3283.78,103.22,100.65,100.18,103.22,100.65,100.18,103.22,100.65,100.18,96.61,96.71,98.15,95.36,97.4,98.46,97.56,97.92,97.01,96.55,99.03,99.03,97.16,95.92,102.81,96.22,97.43,96.6
3224.15,103.09,100.59,100.35,103.09,100.59,100.35,103.09,100.59,100.35,96.47,96.56,98.06,95.27,97.4,98.4,97.5,97.89,96.93,96.83,99.03,99.03,97.16,95.9,102.46,96.23,97.42,96.64
3164.51,103.03,100.74,100.46,103.03,100.74,100.46,103.03,100.74,100.46,96.49,96.71,98.14,95.35,97.37,98.4,97.51,97.88,97.04,97.03,98.94,98.94,97.21,95.97,102.08,96.11,97.28,96.48
3104.87,102.57,100.72,100.24,102.57,100.72,100.24,102.57,100.72,100.24,96.09,96.22,97.88,94.98,97.24,98.2,97.22,97.54,96.62,96.91,98.56,98.56,96.81,95.66,101.46,95.75,96.91,96.05
3045.24,102.68,100.91,100.36,102.68,100.91,100.36,102.68,100.91,100.36,96.09,96.17,97.87,94.94,97.24,98.23,97.25,97.66,96.65,96.97,98.54,98.54,96.8,95.61,101.44,95.78,96.87,96.07
2985.6,101.48,100.25,99.55,101.48,100.25,99.55,101.48,100.25,99.55,95.04,95.18,97.16,93.82,96.62,97.64,96.59,96.75,95.62,96.73,98.05,98.05,96.14,94.75,101.37,94.8,96.05,94.83
2925.96,96.91,98.34,95.94,96.91,98.34,95.94,96.91,98.34,95.94,95.49,95.74,97.57,94.37,96.97,98.02,96.93,97.2,96.19,98.37,101.07,101.07,96.6,95.03,106.23,95.72,96.98,95.93
2866.32,99.35,99.23,98.44,99.35,99.23,98.44,99.35,99.23,98.44,95.46,95.67,97.65,94.45,97.06,97.91,96.91,97.25,96.23,97.21,98.76,98.76,96.56,95.14,102.26,95.33,96.54,95.63
2806.69,102.19,100.57,100.38,102.19,100.57,100.38,102.19,100.57,100.38,95.78,96.08,97.94,94.92,97.31,98.09,97.13,97.52,96.78,97.3,98.21,98.21,96.85,95.53,100.92,95.57,96.66,95.91
2747.05,102.36,100.65,100.51,102.36,100.65,100.51,102.36,100.65,100.51,95.95,96.25,98.12,95.09,97.5,98.18,97.29,97.65,97.01,97.37,98.2,98.2,97.05,95.68,100.61,95.73,96.77,96.12
2687.41,102.31,100.77,100.54,102.31,100.77,100.54,102.31,100.77,100.54,96.06,96.41,98.19,95.25,97.57,98.24,97.34,97.72,97.23,97.53,98.28,98.28,97.17,95.78,100.5,95.81,96.82,96.23
2627.77,102.34,100.72,100.46,102.34,100.72,100.46,102.34,100.72,100.46,95.98,96.34,98.19,95.24,97.52,98.18,97.26,97.73,97.13,97.47,98.17,98.17,97.12,95.7,100.24,95.76,96.76,96.17
2568.14,102.38,100.84,100.58,102.38,100.84,100.58,102.38,100.84,100.58,96.15,96.64,98.26,95.36,97.59,98.26,97.37,97.78,97.33,97.66,98.34,98.34,97.29,95.92,100.26,95.93,96.96,96.3
2508.5,102.24,100.78,100.5,102.24,100.78,100.5,102.24,100.78,100.5,96.34,96.75,98.3,95.57,97.8,98.31,97.48,97.92,97.45,97.83,98.33,98.33,97.56,96.07,100.24,96.11,97.07,96.45
2448.86,102.33,100.8,100.68,102.33,100.8,100.68,102.33,100.8,100.68,96.29,96.73,98.44,95.69,97.85,98.34,97.52,97.92,97.67,97.88,98.32,98.32,97.47,96,100.22,96.09,97.02,96.57
2389.22,102.16,100.73,100.52,102.16,100.73,100.52,102.16,100.73,100.52,96.22,96.61,98.35,95.54,97.82,98.31,97.5,97.8,97.48,97.8,98.19,98.19,97.35,96,99.96,95.98,96.85,96.42
2329.59,102.09,100.65,100.54,102.09,100.65,100.54,102.09,100.65,100.54,96.49,96.96,98.58,95.62,97.88,98.35,97.59,98,97.66,97.73,98.08,98.08,97.48,96.17,99.78,96,96.86,96.43
2269.95,102.44,100.75,100.59,102.44,100.75,100.59,102.44,100.75,100.59,96.63,97.16,98.66,95.94,97.95,98.45,97.59,98.14,97.9,98.12,98.56,98.56,97.67,96.29,100.07,96.42,97.13,96.9
2210.31,102.65,100.97,100.63,102.65,100.97,100.63,102.65,100.97,100.63,97.6,97.95,99.04,96.65,98.27,98.85,98.12,98.56,98.22,98.96,99.39,99.39,98.27,96.84,100.64,96.93,97.84,97.53
2150.67,102.15,100.75,100.66,102.15,100.75,100.66,102.15,100.75,100.66,97.81,98.31,99.3,97.16,98.91,99.35,98.62,98.94,99.12,99.25,99.43,99.43,98.24,97.13,100.93,97.22,97.96,97.99
2091.04,102.04,100.55,100.43,102.04,100.55,100.43,102.04,100.55,100.43,96.84,97.57,98.77,96.36,98.24,98.68,97.95,98.4,98.2,98.51,98.57,98.57,97.88,96.65,100.28,96.59,97.4,97.21
2031.4,102.36,100.97,101.06,102.36,100.97,101.06,102.36,100.97,101.06,98.6,98.96,99.6,97.83,98.98,99.16,98.52,99.19,99.58,99.57,100.06,100.06,98.49,97.24,101,97.2,98.01,97.84
1971.76,102.2,100.96,100.56,102.2,100.96,100.56,102.2,100.96,100.56,98.41,98.98,99.91,97.75,99.3,99.54,99.22,99.55,99.73,99.28,99.37,99.37,98.79,97.43,100.71,97.63,98.16,98
1912.12,101.56,100.53,100.41,101.56,100.53,100.41,101.56,100.53,100.41,97.4,97.89,99.12,96.92,98.76,99.11,98.47,98.79,98.83,98.57,98.8,98.8,98.36,97.25,100.17,97.28,97.85,97.79
1852.49,101.43,100.46,100.33,101.43,100.46,100.33,101.43,100.46,100.33,97.53,97.95,99.07,97.04,98.72,98.86,98.43,98.7,98.76,98.61,98.81,98.81,98.44,97.45,100.18,97.32,97.98,97.8
1792.85,100.37,99.9,99.82,100.37,99.9,99.82,100.37,99.9,99.82,96.93,97.29,98.72,96.8,98.41,98.52,98.1,98.18,98.08,98.16,98.2,98.2,98.14,97.22,99.36,97.04,97.56,97.17
1733.21,82.36,91.01,90.56,82.36,91.01,90.56,82.36,91.01,90.56,81.43,81.24,87.74,79.72,88.97,87.24,86.76,82.62,84.02,89.19,87.28,87.28,87.14,82.69,91.66,80.65,82.42,77.24
1673.57,92.2,94.68,94.38,92.2,94.68,94.38,92.2,94.68,94.38,83.4,84.11,89.89,82.11,90.27,90.38,88.64,87.61,85.52,87.82,87.63,87.63,88.21,84.12,93.21,83.51,85.71,82.04
1613.94,96.98,97.31,97.93,96.98,97.31,97.93,96.98,97.31,97.93,91.88,92.53,95.62,91.04,95.41,95.56,94.48,94.37,93.91,92.69,93.82,93.82,94.37,91.76,98.72,91.79,93.18,91.81
1554.3,98.84,98.38,99.04,98.84,98.38,99.04,98.84,98.38,99.04,94.43,95.05,97.6,94.1,97.14,97.42,96.55,96.85,96.68,94.31,95.49,95.49,96.38,94.56,99.95,94.52,95.58,94.98
1494.66,99.59,99.24,99.4,99.59,99.24,99.4,99.59,99.24,99.4,95.04,95.65,97.85,94.65,97.39,97.65,96.93,97.23,96.82,95.69,96.34,96.34,96.78,95.13,99.48,95.09,95.97,95.44
1435.03,96.88,98.11,97.77,96.88,98.11,97.77,96.88,98.11,97.77,93.52,93.9,96.64,93,96.37,96.52,95.8,95.61,94.99,95.07,95.4,95.4,95.68,93.79,99,93.64,94.6,93.42
1375.39,94.08,96.44,96.33,94.08,96.44,96.33,94.08,96.44,96.33,91.91,92.28,95.39,91.38,95.44,95.19,94.49,93.71,93.48,93.99,94.16,94.16,94.55,92.35,97.86,92.03,93.04,91.3
1315.75,94.92,96.9,96.81,94.92,96.9,96.81,94.92,96.9,96.81,92.85,92.95,95.49,92.11,95.77,95.35,94.89,93.73,93.86,94.8,94.95,94.95,95.11,93.14,98.24,92.7,93.58,91.8
1256.11,65.15,79.74,77.02,65.15,79.74,77.02,65.15,79.74,77.02,67.16,68.42,79.82,65.17,81.3,79.33,77.93,73.37,72.36,78.72,75.79,75.79,76.42,69.25,83.82,66.52,69.97,62.59
1196.48,89.05,93.05,92.61,89.05,93.05,92.61,89.05,93.05,92.61,80.01,81.02,88.28,78.76,88.65,88.43,86.65,85.09,83.65,86.6,85.12,85.12,85.82,81.18,90.77,80.1,82.15,78.58
1136.84,86.66,92.36,91.93,86.66,92.36,91.93,86.66,92.36,91.93,81.6,82.11,88.06,80.14,89.15,87.4,86.86,83.79,84.53,88.11,86.51,86.51,87.13,82.37,91.98,80.8,82.89,78.55
1077.2,66.22,78.17,75.58,66.22,78.17,75.58,66.22,78.17,75.58,65.55,67.31,79.42,63.79,80.61,79.31,77.47,73.52,71.52,77.19,73.8,73.8,75.26,67.85,82.4,65.57,68.8,62.03
1017.56,67.44,79.5,79.03,67.44,79.5,79.03,67.44,79.5,79.03,67.58,69.09,80.13,65.71,81.57,79.87,78.28,73.86,73.16,78.7,75.33,75.33,76.99,69.58,83.29,67.2,70.32,63.66
957.926,85.84,90.63,90.48,85.84,90.63,90.48,85.84,90.63,90.48,79.27,80.5,87.92,78,88.32,88.02,86.02,84.26,83.56,86.34,84.13,84.13,85.55,80.41,89.48,79.27,81.25,77.99
898.288,90.6,93.76,93.69,90.6,93.76,93.69,90.6,93.76,93.69,83.38,84.36,90.39,82.39,90.73,90.43,88.81,87.36,87.17,89.05,87.24,87.24,88.56,84.41,91.64,83.42,84.94,82.43
838.651,90.44,93.51,93.5,90.44,93.51,93.5,90.44,93.51,93.5,79.71,80.97,88.09,78.61,88.58,88.23,86.54,84.65,84.23,86.45,84.55,84.55,85.84,81.01,89.78,79.72,81.68,78.51
779.014,95.07,96.32,96.51,95.07,96.32,96.51,95.07,96.32,96.51,86.09,87.12,92.44,85.24,92.45,92.5,90.94,90.09,89.96,90.44,89.33,89.33,90.63,86.88,93.66,86.17,87.63,85.96
719.376,59.89,71.99,71.71,59.89,71.99,71.71,59.89,71.99,71.71,58.8,61.74,75.65,57.19,76.92,75.77,73.55,68.59,68,72.25,67.63,67.63,70.51,61.72,77.77,58.59,62.22,55.33
659.739,91.94,93.28,94.69,91.94,93.28,94.69,91.94,93.28,94.69,79.25,81.43,88.61,78.63,88.51,88.4,86.31,85.57,85.2,85.19,83.09,83.09,86.21,80.72,89.56,79.86,81.77,79.24
650.42,92.41,93.43,94.55,92.41,93.43,94.55,92.41,93.43,94.55,80.23,81.78,89.23,79.46,88.99,89.73,87.27,86.79,86.81,86.38,84.72,84.72,86.85,81.84,90.61,81.06,83.16,80.65