Folder: PET-Plastisphere/Degradation_FTIR

Note: README.md
# A multi-OMIC characterisation of biodegradation and microbial community succession within the PET Plastisphere
### Robyn J. Wright, Rafael Bosch, Matthew I. Gibson and Joseph A. Christie-Oleza

This is the Github repository for all code used to produce the analyses in [A multi-OMIC characterisation of biodegradation and microbial community succession within the PET Plastisphere](https://www.microbiologyresearch.org/content/journal/acmi/10.1099/acmi.ac2019.po0168)</br>
<i>Note that this link will be updated with a link to the full paper once published.</i></br>

## This repository has the following sections:</br>
### 1. FTIR with raw plastics**</br></br>
### 2. Community succession**</br>
  a) Fig. S2 DNA yields of all samples used for amplicon sequencing</br>
  b) Basic analysis (DADA2 in R)</br>
  c) Fig. S3 stacked bar</br>
  d) Fig. S4 diversity</br>
  e) Fig. 1 NMDS, principal response curve and heatmap</br>
  f) Table S1. ANOSIM and PERMANOVA</br>
  g) Fig. 2 colonisation dynamics</br>
  h) PICRUSt2</br>
  i) Community metabolomics</br></br>
### 3. Isolates**</br>
  a) Genomic analysis</br>
  b) Growth of isolates</br>
  c) Proteomic analysis of isolates</br>
  d) Metabolomic analysis of isolates</br></br>
### 4. Community and isolates (5 month growth experiment)**</br>
  a) Growth at three months and FTIR analysis at five months</br>
### 5. All code used for this chapter of my PhD thesis**

File: DT_LC.csv
Wavenumber (cm^-1),DT13_1,DT13_2,DT13_3,DT14_1,DT14_2,DT14_3,DT15_1,DT15_2,DT15_3,DT16_1,DT16_2,DT16_3,DT17_1,DT17_2,DT17_3,DT18_1,DT18_2,DT18_3,DT19_1,DT19_2,DT19_3,DT20_1,DT20_2,DT20_3,DT21_1,DT21_2,DT21_3,DT22_1,DT22_2,DT22_3,DT23_1,DT23_2,DT23_3,DT24_1,DT24_2,DT24_3
3999.43,115.65,119.48,120.68,104.32,102.26,101.26,108.52,110.84,107.05,101.09,99.79,100.02,104.37,104.27,104.68,99.4,98.5,105.17,100.04,100.65,101,101.87,102.01,101.69,102.65,102.72,102.94,98.72,98.83,103.59,99.28,99.49,99.2,99.76,100.09,99.87
3921.16,115.3,119.05,119.99,103.88,101.82,101.07,107.58,109.8,106.37,101.04,99.67,100.07,104.06,103.84,104.17,99.38,98.5,104.7,99.65,100.39,100.77,101.47,101.66,101.37,102.19,102.24,102.42,98.85,98.8,103.09,99.33,99.37,99.27,99.76,100.12,99.77
3842.89,114.43,118.07,118.88,103.61,101.52,100.97,106.44,108.37,105.28,100.94,99.7,100.22,103.76,103.5,103.78,99.36,98.55,104.13,99.61,100.3,100.48,101.23,101.53,101.24,101.74,101.92,102.08,98.79,98.53,102.48,99.19,99.19,99.04,99.4,99.78,99.45
3764.61,114.4,117.9,119.01,103.79,101.92,101.03,107.01,109.19,105.97,100.85,99.71,100.15,103.89,103.69,104.1,99.66,98.63,104.47,100,100.69,100.87,101.76,101.92,101.64,102.32,102.56,102.62,98.95,98.9,103.11,99.34,99.47,99.37,99.8,100.05,99.86
3686.34,113.56,116.68,117.52,103.89,101.96,101.06,107.39,109.8,106.11,100.81,99.65,99.7,103.65,103.42,103.77,99.46,98.46,104.28,99.83,100.42,100.78,101.35,101.42,101.32,102.06,102.17,102.24,98.83,98.98,102.97,99.11,99.54,99.31,99.7,99.82,99.95
3608.06,112.86,115.73,115.53,103.75,101.59,100.67,107.35,109.74,105.94,100.3,98.8,97.5,102.29,102.49,102.91,99.05,97.9,102.96,99.04,99.81,100.23,101.19,100.98,100.61,101.32,101.74,101.73,98.4,98.49,102.1,97.99,98.67,98.7,98.95,99.36,98.99
3529.79,112.26,114.94,114.09,103.91,101.42,100.5,107.97,110.28,106.4,99.99,97.71,95,101.04,101.66,102.62,98.23,96.64,101.78,97.97,98.81,99.35,100.45,100.32,99.99,100.17,100.83,101.17,97.81,97.66,101.28,96.96,97.88,97.88,98.16,98.46,97.7
3451.51,111.5,114.09,112.78,103.5,100.91,100.07,107.61,110,106.05,99.51,96.79,93.12,100.01,100.76,101.84,97.63,95.99,101.07,97.25,98.41,99.34,100.33,100.21,99.83,99.77,100.47,100.66,97.15,96.99,100.63,95.87,96.92,97.14,97.28,97.38,96.87
3373.24,110.6,113.6,111.5,103.5,100.92,100.22,107.39,109.96,106.19,99.38,96.36,92.55,99.28,100.15,101.29,97.51,95.5,100.28,96.56,97.95,98.72,100.04,99.98,99.63,99.14,100.05,100.11,96.63,96.55,100.17,95.4,96.44,96.61,96.36,96.56,96.04
3294.97,109.88,112.67,110.72,103.12,100.5,100,106.64,108.68,105.69,99,96.07,92.91,99.08,99.78,100.86,97.68,95.6,99.85,96.51,97.83,98.66,99.76,100.03,99.64,98.99,99.76,99.81,96.61,96.4,99.9,95.37,96.32,96.44,95.68,95.84,95.67
3216.69,109.88,112.58,111.13,103.06,100.77,100.32,106.22,108.3,105.48,99.23,96.45,94.12,99.42,99.98,100.92,97.73,96,100.17,97,98.16,98.83,99.82,100.1,99.83,99.32,99.93,99.89,96.77,96.48,100.11,95.91,96.7,96.54,96.13,96.23,96.12
3138.42,109.73,112.32,111.39,102.93,100.8,100.47,105.93,107.95,105.04,99.42,97.25,95.72,100.09,100.51,101.31,98.05,96.48,100.79,97.56,98.46,99.13,99.99,100.23,99.99,99.88,100.27,100.26,97.21,97.04,100.57,96.55,97.32,97.24,97,97.1,96.92
3060.14,109.28,111.44,110.59,102.49,100.64,100.21,105.76,107.95,104.6,99.44,97.14,95.6,99.57,100.14,100.88,97.78,96.34,100.33,97.29,98,98.7,99.53,99.36,99.33,99.35,99.87,99.94,97.07,96.95,100.37,96.08,97,97.12,96.98,97.12,96.98
2981.87,107.42,108.53,107.33,101.28,100.33,99.49,106.17,108.99,104.19,98.81,96.21,93.62,97.06,98.74,99.5,96.11,95.13,98.34,95.74,96.08,97.05,98.29,96.89,97.05,97.7,98.36,98.96,95.75,95.96,99.06,93.88,95.6,96.33,96.51,96.66,96.29
2903.6,102.45,102.68,98.53,100.08,99.89,98.65,109.93,113.35,104.95,96.56,91.99,86.73,89.64,92.96,94.34,92.69,90.11,90.28,91.26,90.96,92.22,95.17,92.34,92.49,93.69,94.21,94.79,91.61,92.68,95.48,88.16,91.22,93.36,93.93,94.16,92.99
2825.32,107.14,108.85,107.75,102.08,100.53,100.23,105.08,107.38,103.56,98.84,96.56,95.63,98.3,98.83,99.51,97.29,95.6,98.48,96.8,97.16,97.59,98.87,98.46,98.47,98.94,98.94,98.8,96.5,96.33,99.74,95.27,96.5,96.67,96.77,97.05,96.73
2747.05,107.81,109.9,109.46,102.36,100.65,100.51,104.13,106.2,103.24,99.52,97.75,97.66,100.28,100.27,100.76,98.36,97.08,100.38,98.09,98.58,98.87,99.76,99.76,99.69,100.09,100.17,99.87,97.68,97.45,100.71,96.98,97.78,97.68,97.73,97.93,97.84
2668.77,107.6,109.64,109.29,102.3,100.74,100.5,103.95,105.93,103.07,99.6,98.03,98.09,100.64,100.55,101.02,98.6,97.36,100.7,98.4,98.91,99.02,99.91,100.02,99.93,100.35,100.36,100.07,97.96,97.71,100.88,97.32,98.09,97.97,98.05,98.26,98.13
2590.5,107.78,110.02,109.94,102.49,100.78,100.68,103.92,105.92,103.03,99.88,98.54,98.78,101.28,101.08,101.44,98.93,97.79,101.28,98.86,99.39,99.42,100.29,100.47,100.3,100.8,100.81,100.54,98.3,98.04,101.31,97.84,98.56,98.35,98.44,98.59,98.57
2512.23,107.78,109.77,109.8,102.23,100.68,100.55,103.59,105.51,102.8,99.87,98.67,98.95,101.34,101.17,101.49,99,98.01,101.35,98.94,99.56,99.58,100.35,100.53,100.35,100.9,100.82,100.77,98.49,98.2,101.29,97.95,98.58,98.45,98.59,98.67,98.73
2433.95,107.31,109.24,109.31,102.29,100.73,100.58,103.35,105.1,102.58,99.92,98.74,99.14,101.5,101.11,101.42,99.2,98.17,101.41,99.23,99.68,99.63,100.31,100.56,100.52,100.99,100.93,100.64,98.82,98.47,101.4,98.42,98.94,98.71,98.89,99.03,98.99
2355.68,106.6,108.19,108.19,102.08,100.68,100.54,102.88,104.71,102.3,100.01,98.83,99.05,101.49,101.08,101.46,99.24,98.24,101.33,99.24,99.7,99.65,100.49,100.51,100.44,101.14,101.08,100.69,98.74,98.46,101.5,98.23,98.86,98.67,98.7,98.9,98.92
2277.4,107.07,108.83,108.88,102.2,100.72,100.46,103.18,104.86,102.38,100,99.04,99.44,101.63,101.37,101.73,99.39,98.31,101.47,99.37,99.89,99.85,100.5,100.65,100.62,101.08,101.19,100.77,98.88,98.53,101.36,98.52,99.07,98.89,99.01,99.01,99.19
2199.13,109.22,111.42,111.87,102.57,100.97,100.69,103.88,105.43,103.08,100.97,100,100.69,103.41,102.59,103.1,100.02,99.25,103.19,100.39,101.16,101.05,101.3,101.82,101.54,102.31,102.16,102.03,99.89,99.83,102.62,100.11,100.41,100.11,100,100.26,100.23
2120.86,107.08,108.54,108.51,102.03,100.79,100.36,102.95,104.55,102.21,100,99.06,99.49,101.77,101.38,101.63,99.5,98.72,101.53,99.62,100.14,100.1,100.76,100.87,100.86,101.33,101.1,100.88,99.12,99,101.6,98.87,99.26,99.2,99.32,99.4,99.38
2042.58,109.16,111.2,111.84,102.42,101.08,100.92,103.72,105.05,102.86,101.17,100.64,101.64,103.62,102.96,103.33,100.57,99.98,103.29,100.86,101.68,101.65,102.02,102.42,102.29,102.76,102.63,102.37,100.21,99.93,102.91,100.43,100.5,100.39,100.47,100.24,100.63
1964.31,107.27,109.03,109.3,101.83,100.77,100.68,103.24,104.96,102.41,100.19,99.39,99.61,102.05,101.12,101.74,99.89,99.1,101.67,100.06,100.28,100.63,101.14,101.17,100.73,101.33,101.25,101.28,99.46,99.18,101.8,98.87,99.78,99.51,99.89,99.76,99.95
1886.03,104.62,105.88,105.78,101.52,100.56,100.36,101.87,103.09,101.36,99.65,98.88,99.29,100.71,100.34,100.61,99.32,98.51,100.45,99.29,99.61,99.55,100.08,100.24,100.13,100.5,100.4,100.25,99.14,98.92,100.69,98.76,99.29,99.1,99.24,99.2,99.27
1807.76,103.27,103.92,103.78,100.78,100.16,99.94,101.58,102.92,100.95,99.28,98.3,98.03,99.27,99.49,99.65,98.4,97.94,99.36,98.3,98.49,98.71,99.1,98.7,98.76,99.16,99.35,99.5,98.43,98.36,99.66,97.52,98.36,98.48,98.72,98.72,98.65
1729.48,82.69,74.42,71.88,79.83,89.59,87.88,92.59,111.07,90.81,87.27,77.28,63.71,65.01,79.57,78.28,70.14,77.37,75.92,69.88,68.52,75.41,73.11,58.76,63.83,68.9,73.64,81.95,77.75,78.52,78.75,57.43,72.57,79.27,83.09,84.58,81.41
1651.21,95.81,94.31,91.31,95.93,96.71,97.27,98.77,101.77,98.56,93.93,89.79,84.65,86.51,90.29,90.84,90.71,90.3,88.92,88.43,88.99,91.07,90.95,88.39,89.47,88.96,90.36,91.73,91.65,91.29,90.95,85.15,89.46,90.75,90.12,90.37,89.91
1572.94,97.11,96.4,93.66,97.64,97.63,97.99,99.58,102.14,99.41,95.5,91.83,87.56,89.45,92.34,93.13,92.65,91.96,91.5,90.91,91.55,92.94,93.44,91.5,92.05,91.74,93.08,93.76,92.76,92.86,93.29,88.2,91.46,92.38,92.02,92.07,91.7
1494.66,100.03,100.04,98.86,99.59,99.24,99.4,100.05,101.06,99.93,97.56,95.68,94.46,95.47,96.31,96.77,96.63,95.79,95.88,95.6,95.87,96.4,96.6,96.28,96.48,96.26,96.63,96.69,96.49,96.25,96.78,94.5,95.9,95.98,95.43,95.38,95.49
1416.39,96.1,94.6,94.31,94.76,96.61,97.5,97.83,101.62,97.71,95,92.61,89.15,89.82,93.34,93,90.77,93.19,92.65,91.4,91.75,93.25,92.88,89.09,90.41,90.68,92.13,94.75,94.18,93.42,93.37,87.94,91.89,93.55,93.38,93.54,93.44
1338.11,95.78,94.38,92.7,96.38,97.72,97.5,99.36,102.45,98.77,95.6,92.38,88.59,89.48,92.91,92.98,91.77,92.48,91.84,90.85,90.87,92.53,92.44,89.42,90.49,91,92.15,93.92,93.03,93.19,93.16,87.88,91.64,92.71,93.32,93.46,92.95
1259.84,69.67,61.29,53.2,65.66,80.11,77.7,81.1,110.81,82.86,78.55,59.57,42.4,45.12,64.46,64.1,57.29,62.91,59.3,52.9,51.83,60.29,56.62,42.54,47.84,54.51,59.64,69.03,63.79,63.69,66.22,35.1,56.28,63.18,69.74,71.77,66.13
1181.57,90.2,88,85.27,91.55,94.94,94.89,97.19,103.98,96.04,91.61,85.11,79.08,80.11,86.23,86.16,84.34,85.99,84.28,82.99,83.17,85.67,85.29,80.04,81.9,83.48,85.17,88.63,87.23,86.7,87.52,76.88,83.98,86.61,88.32,88.76,87.12
1103.292,69.99,62.63,55.83,66.73,80.05,79.24,80.3,107.47,82.43,78.21,60.07,44.81,46.95,64.79,64.15,57.92,64.12,60.52,54.59,54.2,61.4,57.47,44.64,49.53,55.78,60.29,70.26,65.35,64.04,66.7,37.39,57.1,63.45,70.17,71.83,66.55
1025.02,81.19,76.94,72.76,83.13,89.32,89.77,91.31,104.58,91.43,84.83,73.7,64.17,65.81,75.72,75.43,72.66,76.78,73.88,70.93,71.15,75.4,73.6,65.1,68.16,71.55,74.5,81.19,78.42,76.93,78.54,60.6,72.32,76.81,80.25,81.02,78.14
946.744,82.9,80.4,75.31,88.13,91.92,91.75,92.9,103.2,92.83,86.33,75.43,68.08,69.39,77.46,77.59,76.69,77.88,75.49,73.41,73.99,76.99,75.37,70.03,72.12,75.03,76.75,81.75,79.4,78.06,79.95,64.75,74.45,77.36,81.1,81.67,78.7
868.47,78.93,75.64,69.51,84.94,90.1,89.44,91.33,103.77,91.78,83.67,70.62,61.68,63.09,73.11,73.36,72.24,73.45,70.7,68.24,68.5,72.09,70.23,64.29,66.52,70.06,72.26,78.15,74.92,73.62,76.01,58.2,69.42,72.83,77.56,78.05,74.44
790.196,86.31,84.16,79.93,91.52,94.26,93.96,95.91,102.68,95.91,88.31,79.65,73.58,75.04,80.62,81.24,81.42,82.12,79.86,78.67,79.08,81.53,80.65,76.72,78.07,80.08,81.68,85.35,83.53,82.33,83.89,72.52,79.59,81.78,84.38,84.7,82.48
711.922,69.09,66.25,57.05,76.75,83.67,84.03,83.64,100.21,86.35,74.31,55.8,46.54,48.03,59.58,60.41,61.85,61.29,57.05,55.65,56.4,59.15,56.6,53.23,54.75,58.88,60.36,67.82,63.97,60.52,65.19,43.33,56.23,58.7,65.66,65.9,60.96
650.42,85.46,84.61,80.42,92.41,93.43,94.55,93.73,98.66,94.84,87.22,78.52,74.63,76.3,80.08,80.78,83,82.33,80.04,80.03,80.87,82.1,80.63,79.32,80.02,80.82,82.02,85.18,84.24,81.98,83.6,74.12,80.28,80.8,82.46,82.94,80.91