Folder: PET-Plastisphere/4_community_and_isolates/a_growth_and_FTIR

Note: README.md
# A multi-OMIC characterisation of biodegradation and microbial community succession within the PET Plastisphere
### Robyn J. Wright, Rafael Bosch, Matthew I. Gibson and Joseph A. Christie-Oleza

This is the Github repository for all code used to produce the analyses in [A multi-OMIC characterisation of biodegradation and microbial community succession within the PET Plastisphere](https://www.microbiologyresearch.org/content/journal/acmi/10.1099/acmi.ac2019.po0168)</br>
<i>Note that this link will be updated with a link to the full paper once published.</i></br>

## This repository has the following sections:</br>
### 1. FTIR with raw plastics**</br></br>
### 2. Community succession**</br>
  a) Fig. S2 DNA yields of all samples used for amplicon sequencing</br>
  b) Basic analysis (DADA2 in R)</br>
  c) Fig. S3 stacked bar</br>
  d) Fig. S4 diversity</br>
  e) Fig. 1 NMDS, principal response curve and heatmap</br>
  f) Table S1. ANOSIM and PERMANOVA</br>
  g) Fig. 2 colonisation dynamics</br>
  h) PICRUSt2</br>
  i) Community metabolomics</br></br>
### 3. Isolates**</br>
  a) Genomic analysis</br>
  b) Growth of isolates</br>
  c) Proteomic analysis of isolates</br>
  d) Metabolomic analysis of isolates</br></br>
### 4. Community and isolates (5 month growth experiment)**</br>
  a) Growth at three months and FTIR analysis at five months</br>
### 5. All code used for this chapter of my PhD thesis**

File: corrected_spectra_r_LC.txt
.wavelength	spc
650	1.10016
1053	2.55823
1456	0.881746
1859	0.00210218
2262	0.169484
2665	0.543777
3068	0.886001
3471	1.09371
3874	1.11284
926	1.21969
1329	0.314604
1732	2.43516
2135	0.0839535
2538	0.406605
2941	1.59959
3344	1.02172
3747	1.03038
799	1.13138
1202	2.09603
1605	0.498379
2008	-0.0420158
2411	0.358534
2814	0.773282
3217	0.932947
3620	1.0492
672	1.61302
1075	4.19256
1478	0.213124
1881	0.0207975
2284	0.249975
2687	0.559956
3090	0.838203
3493	0.990921
3896	1.16314
948	1.9684
1351	0.291225
1754	0.391457
2157	-0.0153679
2560	0.401337
2963	1.25885
3366	0.911894
3769	1.03025
821	1.1666
1224	4.07774
1627	0.575175
2030	-0.0504603
2433	0.31378
2836	0.837964
3239	0.864925
3642	1.02104
694	1.83855
1097	4.04915
1500	0.453613
1903	0.0308222
2306	0.27027
2709	0.588999
3112	0.908836
3515	1.12025
3918	1.21483
970	1.90019
1373	0.858239
1776	0.161353
2179	0.0251497
2582	0.476542
2985	0.97004
3388	1.08528
3791	1.11435
843	1.26314
1246	4.00132
1649	1.01967
2052	-0.0550477
2455	0.405849
2858	1.43969
3261	1.12869
3664	1.11393
716	4.48127
1119	3.22608
1522	0.188449
1925	0.0228746
2328	0.301483
2731	0.613805
3134	0.894499
3537	1.0322
3940	1.12079
992	2.02026
1395	0.699825
1798	0.0181608
2201	0.0815672
2604	0.491572
3007	0.832865
3410	1.09364
3813	1.03638
865	1.78378
1268	3.02573
1671	1.47554
2074	0.112207
2477	0.407915
2880	1.15491
3283	1.15557
3686	1.08876
738	1.55372
1141	1.52879
1544	0.244718
1947	0.0440313
2350	0.283681
2753	0.596211
3156	0.845879
3559	0.988533
3962	1.06277
1014	3.786
1417	0.460688
1820	0.0461928
2223	0.145299
2626	0.518473
3029	0.817012
3432	1.14443
3835	1.06709
887	1.30393
1290	1.7454
1693	2.20479
2096	0.0975651
2499	0.417787
2902	1.23682
3305	1.14204
3708	1.0392
760	0.0871803
1163	0.647596
1566	0.588876
1969	-0.026248
2372	0.396419
2775	0.773718
3178	1.16084
3581	1.12384
3984	1.25732
1036	2.19927
1439	0.590955
1842	0.0302313
2245	0.19477
2648	0.630214
3051	1.04552
3454	1.27864
3857	1.23461
909	0.938026
1312	0.529002
1715	3.15504
2118	0.128214
2521	0.454914
2924	1.63029
3327	1.29811
3730	1.08435
782	0.485869
1185	1.27099
1588	0.491854
1991	-0.0327182
2394	0.254069
2797	0.518688
3200	0.657694
3603	0.774586
655	1.20198
1058	3.09407
1461	0.856744
1864	0.0157548
2267	0.19522
2670	0.449682
3073	0.707223
3476	0.813608
3879	0.853407
931	1.16092
1334	0.375339
1737	1.84805
2140	0.0547068
2543	0.314003
2946	1.36998
3349	0.852557
3752	0.860963
804	0.944246
1207	2.57276
1610	0.582835
2013	-0.101488
2416	0.266511
2819	0.569459
3222	0.660401
3625	0.81191
677	1.61548
1080	6.27704
1483	0.222813
1886	0.00562543
2289	0.220139
2692	0.462025
3095	0.704022
3498	0.781171
3901	0.900853
953	2.07919
1356	0.266479
1759	0.284703
2162	0.0768847
2565	0.318157
2968	1.10639
3371	0.847699
3774	0.868217
826	1.03353
1229	6.18932
1632	0.671829
2035	-0.0274499
2438	0.262781
2841	0.578496
3244	0.676586
3647	0.852247
699	2.61117
1102	5.56112
1505	0.606082
1908	0.0167513
2311	0.229921
2714	0.485112
3117	0.716081
3520	0.762824
3923	0.915042
975	1.89948
1378	0.738022
1781	0.116319
2184	-0.00560498
2587	0.328925
2990	0.765346
3393	0.853348
3796	0.851023
848	1.47788
1251	3.58601
1654	1.00622
2057	0.0369772
2460	0.398287
2863	1.21488
3266	1.12556
3669	1.11937
721	5.67213
1124	2.57877
1527	0.252284
1930	0.0308907
2333	0.286551
2736	0.622006
3139	0.92404
3542	1.10987
3945	1.1379
997	1.90201
1400	1.07735
1803	0.041424
2206	0.084302
2609	0.462175
3012	0.872376
3415	1.37534
3818	1.04865
870	2.21279
1273	2.93146
1676	1.65784
2079	0.083031
2482	0.389729
2885	1.30559
3288	1.11799
3691	1.06727
743	0.203289
1146	0.87218
1549	0.381657
1952	0.0742862
2355	0.359028
2758	0.734469
3161	1.01197
3564	1.14525
3967	1.22799
1019	3.01629
1422	0.31973
1825	0.147597
2228	0.132217
2631	0.583122
3034	0.863657
3437	1.16142
3840	1.21568
892	1.42593
1295	1.85902
1698	3.03354
2101	0.0932831
2504	0.378595
2907	1.32345
3310	0.978644
3713	0.999309
765	0.215169
1168	1.06182
1571	0.566167
1974	-0.0251182
2377	0.329489
2780	0.681187
3183	0.970551
3586	1.02509
3989	1.13756
1041	2.37256
1444	0.832886
1847	0.117546
2250	0.18497
2653	0.609939
3056	0.938278
3459	1.15381
3862	1.15365
4000	1.1791

File: corrected_spectra_r_PET.txt
.wavelength	spc
650	1.79677
1053	2.69718
1456	0.554009
1859	-0.0261486
2262	0.299504
2665	0.586836
3068	0.802947
3471	0.902783
3874	1.06353
926	1.6052
1329	0.606172
1732	2.50302
2135	0.105589
2538	0.4532
2941	0.794549
3344	0.769893
3747	0.911791
799	1.01391
1202	2.22008
1605	0.483563
2008	0.0337449
2411	0.447133
2814	0.771882
3217	0.950308
3620	1.22246
672	2.56291
1075	4.19643
1478	0.433628
1881	0.00445979
2284	0.35709
2687	0.528232
3090	0.680329
3493	0.741181
3896	0.855174
948	1.98766
1351	0.467022
1754	0.0705339
2157	-0.0214499
2560	0.478994
2963	0.956031
3366	0.769802
3769	0.921688
821	1.24421
1224	3.80347
1627	0.667602
2030	-0.00849365
2433	0.443601
2836	0.749857
3239	0.887983
3642	1.09703
694	3.22905
1097	4.56571
1500	0.56592
1903	0.0302421
2306	0.349963
2709	0.533571
3112	0.665088
3515	0.745764
3918	0.885714
970	2.15405
1373	0.469311
1776	-0.00287604
2179	0.12437
2582	0.568366
2985	0.985368
3388	1.02295
3791	1.25599
843	1.93754
1246	4.22524
1649	0.972471
2052	0.0758919
2455	0.458473
2858	0.780381
3261	0.877483
3664	1.0779
716	5.01645
1119	3.83822
1522	0.306004
1925	0.054795
2328	0.369146
2731	0.541694
3134	0.628881
3537	0.74783
3940	0.860345
992	2.17205
1395	0.603577
1798	0.004084
2201	0.165532
2604	0.54263
3007	0.826482
3410	0.918397
3813	1.08457
865	2.23991
1268	3.08972
1671	1.76267
2074	0.181083
2477	0.447932
2880	0.837953
3283	0.849774
3686	0.99725
738	0.959658
1141	1.34231
1544	0.256786
1947	0.106728
2350	0.41566
2753	0.6623
3156	0.819785
3559	0.984555
3962	1.16535
1014	3.42208
1417	0.454685
1820	0.0114735
2223	0.258986
2626	0.608278
3029	0.811237
3432	1.0601
3835	1.16144
887	1.63648
1290	1.74488
1693	2.74548
2096	0.164411
2499	0.442788
2902	0.748792
3305	0.742413
3708	0.865483
760	0.827076
1163	1.1388
1566	0.522888
1969	0.000708698
2372	0.333074
2775	0.484244
3178	0.555829
3581	0.633313
3984	0.731256
1036	2.28842
1439	0.4214
1842	-0.00618549
2245	0.288849
2648	0.615618
3051	0.865054
3454	0.968609
3857	1.2238
909	1.01281
1312	0.508283
1715	4.1698
2118	0.18649
2521	0.507903
2924	0.890189
3327	1.01801
3730	1.23258
782	0.980851
1185	1.34048
1588	0.379203
1991	0.00926067
2394	0.449959
2797	0.733758
3200	0.873773
3603	1.1165
655	1.2959
1058	2.32472
1461	0.394671
1864	-0.0189311
2267	0.349545
2670	0.701478
3073	1.00661
3476	1.1757
3879	1.46191
931	1.22222
1334	1.11278
1737	1.69278
2140	0.13926
2543	0.551411
2946	1.01033
3349	1.03905
3752	1.28723
804	1.26703
1207	2.78581
1610	0.671441
2013	-0.0174332
2416	0.420228
2819	0.682788
3222	0.810907
3625	0.989654
677	2.22666
1080	3.94463
1483	0.199836
1886	-0.026722
2289	0.374739
2692	0.597376
3095	0.826859
3498	0.9625
3901	1.1489
953	1.87682
1356	0.312871
1759	0.0808147
2162	0.129732
2565	0.494052
2968	0.962408
3371	0.841507
3774	1.015
826	1.77828
1229	4.44324
1632	0.913832
2035	0.0148934
2438	0.375649
2841	0.62578
3244	0.677166
3647	0.821915
699	2.89154
1102	3.92998
1505	0.626316
1908	-0.0182615
2311	0.363312
2714	0.634028
3117	0.876426
3520	1.03152
3923	1.22843
975	1.94412
1378	0.474042
1781	0.0274576
2184	0.13429
2587	0.589073
2990	1.01269
3393	1.04241
3796	1.24274
848	2.06782
1251	4.11657
1654	1.19804
2057	0.091699
2460	0.444363
2863	0.760376
3266	0.840446
3669	1.00741
721	4.60512
1124	3.17015
1527	0.217688
1930	0.0482478
2333	0.392451
2736	0.649161
3139	0.818618
3542	0.990989
3945	1.18066
997	2.18278
1400	0.993722
1803	0.0140205
2206	0.181177
2609	0.591586
3012	0.876298
3415	0.978523
3818	1.16614
870	2.48239
1273	2.71861
1676	1.95712
2079	0.16111
2482	0.463433
2885	0.83824
3288	0.885175
3691	1.10338
743	0.193467
1146	0.982167
1549	0.26753
1952	0.0775422
2355	0.402679
2758	0.660831
3161	0.801175
3564	1.00491
3967	1.18288
1019	3.3771
1422	0.103027
1825	0.0244804
2228	0.217161
2631	0.602237
3034	0.822832
3437	1.04464
3840	1.27449
892	1.2606
1295	1.20803
1698	3.29303
2101	0.2059
2504	0.496151
2907	0.920375
3310	0.936106
3713	1.14972
765	0.681747
1168	1.11952
1571	0.510318
1974	-0.00788064
2377	0.388885
2780	0.631463
3183	0.772647
3586	0.940573
3989	1.07763
1041	2.50315
1444	0.495428
1847	-0.0168402
2250	0.289056
2653	0.592502
3056	0.84909
3459	0.956292
3862	1.12898
4000	1.19693

File: corrected_spectra_r_WPET.txt
.wavelength	spc
650	2.09986
1053	2.93364
1456	0.640419
1859	-0.00438209
2262	0.25595
2665	0.529051
3068	0.713078
3471	0.752261
3874	0.873277
926	1.27317
1329	0.39883
1732	2.18596
2135	0.115082
2538	0.552662
2941	0.941733
3344	1.0094
3747	1.25453
799	1.16536
1202	2.30972
1605	0.52089
2008	0.00448215
2411	0.437476
2814	0.725
3217	0.880551
3620	1.12069
672	1.7647
1075	3.59117
1478	0.314251
1881	-0.0251983
2284	0.365182
2687	0.634463
3090	0.889594
3493	1.03083
3896	1.2704
948	1.66832
1351	0.436884
1754	0.111937
2157	0.0672616
2560	0.522542
2963	1.04736
3366	0.914879
3769	1.10987
821	1.80259
1224	4.3192
1627	0.851538
2030	-0.0132617
2433	0.388274
2836	0.596049
3239	0.638283
3642	0.774284
694	2.50818
1097	3.78791
1500	0.416846
1903	0.0133047
2306	0.427857
2709	0.687106
3112	0.90797
3515	1.05865
3918	1.32997
970	1.93602
1373	0.48013
1776	0.0603267
2179	0.0541007
2582	0.607971
2985	1.04667
3388	1.07163
3791	1.35737
843	1.81041
1246	4.03062
1649	0.987038
2052	0.0417759
2455	0.444517
2858	0.834021
3261	0.923315
3664	1.18421
716	4.12107
1119	3.24352
1522	0.244282
1925	0.0497597
2328	0.411935
2731	0.683898
3134	0.876874
3537	1.07091
3940	1.28952
992	2.24433
1395	0.667828
1798	-0.00314096
2201	0.181895
2604	0.543022
3007	0.802487
3410	0.882423
3813	0.976452
865	2.2358
1268	3.16507
1671	1.77159
2074	0.165859
2477	0.453583
2880	0.808434
3283	0.850541
3686	1.01153
738	0.919426
1141	1.36788
1544	0.285847
1947	0.0618844
2350	0.402712
2753	0.67703
3156	0.832708
3559	1.00759
3962	1.19583
1014	3.55986
1417	0.625658
1820	0.0138382
2223	0.246846
2626	0.571721
3029	0.753739
3432	0.937353
3835	1.06463
887	1.06337
1290	1.39718
1693	2.62831
2096	0.193516
2499	0.5398
2902	0.978861
3305	1.03883
3708	1.28838
760	0.394903
1163	0.822366
1566	0.417934
1969	-0.020417
2372	0.397814
2775	0.663038
3178	0.795816
3581	0.992633
3984	1.16726
1036	2.23689
1439	0.414691
1842	-0.00750827
2245	0.290093
2648	0.616412
3051	0.852499
3454	0.983068
3857	1.24176
909	0.991391
1312	0.468726
1715	4.17315
2118	0.206065
2521	0.529625
2924	0.917809
3327	1.03253
3730	1.26145
782	0.764469
1185	1.08527
1588	0.650117
1991	0.0142835
2394	0.484135
2797	0.843532
3200	1.1752
3603	1.23446
655	1.65262
1058	2.54307
1461	0.428777
1864	0.00455712
2267	0.332346
2670	0.673563
3073	0.931552
3476	1.02642
3879	1.33768
931	1.33378
1334	1.01582
1737	1.31423
2140	0.114026
2543	0.566609
2946	0.796745
3349	1.00178
3752	1.35972
804	1.04636
1207	2.6233
1610	0.597702
2013	0.0135553
2416	0.449901
2819	0.753044
3222	0.928816
3625	1.17058
677	2.36365
1080	4.19916
1483	0.225112
1886	-0.00958097
2289	0.37661
2692	0.575046
3095	0.772467
3498	0.87467
3901	1.03913
953	1.65725
1356	-0.0363961
1759	0.146298
2162	0.130094
2565	0.710876
2968	0.770956
3371	0.869317
3774	1.55625
826	1.56963
1229	4.34745
1632	0.747426
2035	0.0267451
2438	0.424329
2841	0.678717
3244	0.792518
3647	1.00647
699	3.195
1102	4.06043
1505	0.615667
1908	0.00563137
2311	0.386512
2714	0.605939
3117	0.796618
3520	0.952987
3923	1.16833
975	2.35949
1378	0.542096
1781	-0.0063165
2184	0.135618
2587	0.49731
2990	0.843218
3393	0.826791
3796	1.00018
848	1.8452
1251	3.82229
1654	1.16766
2057	0.0861774
2460	0.470944
2863	0.780624
3266	0.921344
3669	1.20784
721	4.43471
1124	3.01921
1527	0.200739
1930	0.0381246
2333	0.427925
2736	0.690734
3139	0.869774
3542	1.08691
3945	1.29206
997	2.17601
1400	0.890856
1803	0.00656103
2206	0.205501
2609	0.606384
3012	0.883468
3415	1.00537
3818	1.20992
870	2.41115
1273	2.75644
1676	1.95141
2079	0.161915
2482	0.470785
2885	0.84477
3288	0.912858
3691	1.18671
743	0.112891
1146	1.00659
1549	0.14392
1952	0.0464507
2355	0.430724
2758	0.684152
3161	0.859434
3564	1.11894
3967	1.31349
1019	3.40163
1422	0.119741
1825	0.049392
2228	0.234599
2631	0.601617
3034	0.813653
3437	1.01871
3840	1.27675
892	1.36327
1295	1.23915
1698	3.2797
2101	0.231638
2504	0.500279
2907	0.863074
3310	0.859076
3713	1.01687
765	0.712519
1168	1.11101
1571	0.543728
1974	-0.0398093
2377	0.413817
2780	0.634744
3183	0.748325
3586	0.908119
3989	1.03939
1041	2.30294
1444	0.359602
1847	0.012564
2250	0.281796
2653	0.657123
3056	0.901088
3459	1.03072
3862	1.32096
4000	1.36598