Folder: PET-Plastisphere/5_RW_thesis/Degradation_FTIR

Note: README.md
# A multi-OMIC characterisation of biodegradation and microbial community succession within the PET Plastisphere
### Robyn J. Wright, Rafael Bosch, Matthew I. Gibson and Joseph A. Christie-Oleza

This is the Github repository for all code used to produce the analyses in [A multi-OMIC characterisation of biodegradation and microbial community succession within the PET Plastisphere](https://www.microbiologyresearch.org/content/journal/acmi/10.1099/acmi.ac2019.po0168)</br>
<i>Note that this link will be updated with a link to the full paper once published.</i></br>

## This repository has the following sections:</br>
### 1. FTIR with raw plastics**</br></br>
### 2. Community succession**</br>
  a) Fig. S2 DNA yields of all samples used for amplicon sequencing</br>
  b) Basic analysis (DADA2 in R)</br>
  c) Fig. S3 stacked bar</br>
  d) Fig. S4 diversity</br>
  e) Fig. 1 NMDS, principal response curve and heatmap</br>
  f) Table S1. ANOSIM and PERMANOVA</br>
  g) Fig. 2 colonisation dynamics</br>
  h) PICRUSt2</br>
  i) Community metabolomics</br></br>
### 3. Isolates**</br>
  a) Genomic analysis</br>
  b) Growth of isolates</br>
  c) Proteomic analysis of isolates</br>
  d) Metabolomic analysis of isolates</br></br>
### 4. Community and isolates (5 month growth experiment)**</br>
  a) Growth at three months and FTIR analysis at five months</br>
### 5. All code used for this chapter of my PhD thesis**

File: DT_LC_edit.csv
Wavenumber (cm^-1),DT13_1,DT13_2,DT13_3,DT14_1,DT14_2,DT14_3,DT15_1,DT15_2,DT15_3,DT16_1,DT16_2,DT16_3,DT17_1,DT17_2,DT17_3,DT18_1,DT18_2,DT18_3,DT19_1,DT19_2,DT19_3,DT20_1,DT20_2,DT20_3,DT21_1,DT21_2,DT21_3,DT22_1,DT22_2,DT22_3,DT23_1,DT23_2,DT23_3,DT24_1,DT24_2,DT24_3
3999.43,104.32,102.26,101.26,104.32,102.26,101.26,104.32,102.26,101.26,101.09,99.79,100.02,104.37,104.27,104.68,99.4,98.5,105.17,100.04,100.65,101,101.87,102.01,101.69,102.65,102.72,102.94,98.72,98.83,103.59,99.28,99.49,99.2,99.76,100.09,99.87
3921.16,103.88,101.82,101.07,103.88,101.82,101.07,103.88,101.82,101.07,101.04,99.67,100.07,104.06,103.84,104.17,99.38,98.5,104.7,99.65,100.39,100.77,101.47,101.66,101.37,102.19,102.24,102.42,98.85,98.8,103.09,99.33,99.37,99.27,99.76,100.12,99.77
3842.89,103.61,101.52,100.97,103.61,101.52,100.97,103.61,101.52,100.97,100.94,99.7,100.22,103.76,103.5,103.78,99.36,98.55,104.13,99.61,100.3,100.48,101.23,101.53,101.24,101.74,101.92,102.08,98.79,98.53,102.48,99.19,99.19,99.04,99.4,99.78,99.45
3764.61,103.79,101.92,101.03,103.79,101.92,101.03,103.79,101.92,101.03,100.85,99.71,100.15,103.89,103.69,104.1,99.66,98.63,104.47,100,100.69,100.87,101.76,101.92,101.64,102.32,102.56,102.62,98.95,98.9,103.11,99.34,99.47,99.37,99.8,100.05,99.86
3686.34,103.89,101.96,101.06,103.89,101.96,101.06,103.89,101.96,101.06,100.81,99.65,99.7,103.65,103.42,103.77,99.46,98.46,104.28,99.83,100.42,100.78,101.35,101.42,101.32,102.06,102.17,102.24,98.83,98.98,102.97,99.11,99.54,99.31,99.7,99.82,99.95
3608.06,103.75,101.59,100.67,103.75,101.59,100.67,103.75,101.59,100.67,100.3,98.8,97.5,102.29,102.49,102.91,99.05,97.9,102.96,99.04,99.81,100.23,101.19,100.98,100.61,101.32,101.74,101.73,98.4,98.49,102.1,97.99,98.67,98.7,98.95,99.36,98.99
3529.79,103.91,101.42,100.5,103.91,101.42,100.5,103.91,101.42,100.5,99.99,97.71,95,101.04,101.66,102.62,98.23,96.64,101.78,97.97,98.81,99.35,100.45,100.32,99.99,100.17,100.83,101.17,97.81,97.66,101.28,96.96,97.88,97.88,98.16,98.46,97.7
3451.51,103.5,100.91,100.07,103.5,100.91,100.07,103.5,100.91,100.07,99.51,96.79,93.12,100.01,100.76,101.84,97.63,95.99,101.07,97.25,98.41,99.34,100.33,100.21,99.83,99.77,100.47,100.66,97.15,96.99,100.63,95.87,96.92,97.14,97.28,97.38,96.87
3373.24,103.5,100.92,100.22,103.5,100.92,100.22,103.5,100.92,100.22,99.38,96.36,92.55,99.28,100.15,101.29,97.51,95.5,100.28,96.56,97.95,98.72,100.04,99.98,99.63,99.14,100.05,100.11,96.63,96.55,100.17,95.4,96.44,96.61,96.36,96.56,96.04
3294.97,103.12,100.5,100,103.12,100.5,100,103.12,100.5,100,99,96.07,92.91,99.08,99.78,100.86,97.68,95.6,99.85,96.51,97.83,98.66,99.76,100.03,99.64,98.99,99.76,99.81,96.61,96.4,99.9,95.37,96.32,96.44,95.68,95.84,95.67
3216.69,103.06,100.77,100.32,103.06,100.77,100.32,103.06,100.77,100.32,99.23,96.45,94.12,99.42,99.98,100.92,97.73,96,100.17,97,98.16,98.83,99.82,100.1,99.83,99.32,99.93,99.89,96.77,96.48,100.11,95.91,96.7,96.54,96.13,96.23,96.12
3138.42,102.93,100.8,100.47,102.93,100.8,100.47,102.93,100.8,100.47,99.42,97.25,95.72,100.09,100.51,101.31,98.05,96.48,100.79,97.56,98.46,99.13,99.99,100.23,99.99,99.88,100.27,100.26,97.21,97.04,100.57,96.55,97.32,97.24,97,97.1,96.92
3060.14,102.49,100.64,100.21,102.49,100.64,100.21,102.49,100.64,100.21,99.44,97.14,95.6,99.57,100.14,100.88,97.78,96.34,100.33,97.29,98,98.7,99.53,99.36,99.33,99.35,99.87,99.94,97.07,96.95,100.37,96.08,97,97.12,96.98,97.12,96.98
2981.87,101.28,100.33,99.49,101.28,100.33,99.49,101.28,100.33,99.49,98.81,96.21,93.62,97.06,98.74,99.5,96.11,95.13,98.34,95.74,96.08,97.05,98.29,96.89,97.05,97.7,98.36,98.96,95.75,95.96,99.06,93.88,95.6,96.33,96.51,96.66,96.29
2903.6,100.08,99.89,98.65,100.08,99.89,98.65,100.08,99.89,98.65,96.56,91.99,86.73,89.64,92.96,94.34,92.69,90.11,90.28,91.26,90.96,92.22,95.17,92.34,92.49,93.69,94.21,94.79,91.61,92.68,95.48,88.16,91.22,93.36,93.93,94.16,92.99
2825.32,102.08,100.53,100.23,102.08,100.53,100.23,102.08,100.53,100.23,98.84,96.56,95.63,98.3,98.83,99.51,97.29,95.6,98.48,96.8,97.16,97.59,98.87,98.46,98.47,98.94,98.94,98.8,96.5,96.33,99.74,95.27,96.5,96.67,96.77,97.05,96.73
2747.05,102.36,100.65,100.51,102.36,100.65,100.51,102.36,100.65,100.51,99.52,97.75,97.66,100.28,100.27,100.76,98.36,97.08,100.38,98.09,98.58,98.87,99.76,99.76,99.69,100.09,100.17,99.87,97.68,97.45,100.71,96.98,97.78,97.68,97.73,97.93,97.84
2668.77,102.3,100.74,100.5,102.3,100.74,100.5,102.3,100.74,100.5,99.6,98.03,98.09,100.64,100.55,101.02,98.6,97.36,100.7,98.4,98.91,99.02,99.91,100.02,99.93,100.35,100.36,100.07,97.96,97.71,100.88,97.32,98.09,97.97,98.05,98.26,98.13
2590.5,102.49,100.78,100.68,102.49,100.78,100.68,102.49,100.78,100.68,99.88,98.54,98.78,101.28,101.08,101.44,98.93,97.79,101.28,98.86,99.39,99.42,100.29,100.47,100.3,100.8,100.81,100.54,98.3,98.04,101.31,97.84,98.56,98.35,98.44,98.59,98.57
2512.23,102.23,100.68,100.55,102.23,100.68,100.55,102.23,100.68,100.55,99.87,98.67,98.95,101.34,101.17,101.49,99,98.01,101.35,98.94,99.56,99.58,100.35,100.53,100.35,100.9,100.82,100.77,98.49,98.2,101.29,97.95,98.58,98.45,98.59,98.67,98.73
2433.95,102.29,100.73,100.58,102.29,100.73,100.58,102.29,100.73,100.58,99.92,98.74,99.14,101.5,101.11,101.42,99.2,98.17,101.41,99.23,99.68,99.63,100.31,100.56,100.52,100.99,100.93,100.64,98.82,98.47,101.4,98.42,98.94,98.71,98.89,99.03,98.99
2355.68,102.08,100.68,100.54,102.08,100.68,100.54,102.08,100.68,100.54,100.01,98.83,99.05,101.49,101.08,101.46,99.24,98.24,101.33,99.24,99.7,99.65,100.49,100.51,100.44,101.14,101.08,100.69,98.74,98.46,101.5,98.23,98.86,98.67,98.7,98.9,98.92
2277.4,102.2,100.72,100.46,102.2,100.72,100.46,102.2,100.72,100.46,100,99.04,99.44,101.63,101.37,101.73,99.39,98.31,101.47,99.37,99.89,99.85,100.5,100.65,100.62,101.08,101.19,100.77,98.88,98.53,101.36,98.52,99.07,98.89,99.01,99.01,99.19
2199.13,102.57,100.97,100.69,102.57,100.97,100.69,102.57,100.97,100.69,100.97,100,100.69,103.41,102.59,103.1,100.02,99.25,103.19,100.39,101.16,101.05,101.3,101.82,101.54,102.31,102.16,102.03,99.89,99.83,102.62,100.11,100.41,100.11,100,100.26,100.23
2120.86,102.03,100.79,100.36,102.03,100.79,100.36,102.03,100.79,100.36,100,99.06,99.49,101.77,101.38,101.63,99.5,98.72,101.53,99.62,100.14,100.1,100.76,100.87,100.86,101.33,101.1,100.88,99.12,99,101.6,98.87,99.26,99.2,99.32,99.4,99.38
2042.58,102.42,101.08,100.92,102.42,101.08,100.92,102.42,101.08,100.92,101.17,100.64,101.64,103.62,102.96,103.33,100.57,99.98,103.29,100.86,101.68,101.65,102.02,102.42,102.29,102.76,102.63,102.37,100.21,99.93,102.91,100.43,100.5,100.39,100.47,100.24,100.63
1964.31,101.83,100.77,100.68,101.83,100.77,100.68,101.83,100.77,100.68,100.19,99.39,99.61,102.05,101.12,101.74,99.89,99.1,101.67,100.06,100.28,100.63,101.14,101.17,100.73,101.33,101.25,101.28,99.46,99.18,101.8,98.87,99.78,99.51,99.89,99.76,99.95
1886.03,101.52,100.56,100.36,101.52,100.56,100.36,101.52,100.56,100.36,99.65,98.88,99.29,100.71,100.34,100.61,99.32,98.51,100.45,99.29,99.61,99.55,100.08,100.24,100.13,100.5,100.4,100.25,99.14,98.92,100.69,98.76,99.29,99.1,99.24,99.2,99.27
1807.76,100.78,100.16,99.94,100.78,100.16,99.94,100.78,100.16,99.94,99.28,98.3,98.03,99.27,99.49,99.65,98.4,97.94,99.36,98.3,98.49,98.71,99.1,98.7,98.76,99.16,99.35,99.5,98.43,98.36,99.66,97.52,98.36,98.48,98.72,98.72,98.65
1729.48,79.83,89.59,87.88,79.83,89.59,87.88,79.83,89.59,87.88,87.27,77.28,63.71,65.01,79.57,78.28,70.14,77.37,75.92,69.88,68.52,75.41,73.11,58.76,63.83,68.9,73.64,81.95,77.75,78.52,78.75,57.43,72.57,79.27,83.09,84.58,81.41
1651.21,95.93,96.71,97.27,95.93,96.71,97.27,95.93,96.71,97.27,93.93,89.79,84.65,86.51,90.29,90.84,90.71,90.3,88.92,88.43,88.99,91.07,90.95,88.39,89.47,88.96,90.36,91.73,91.65,91.29,90.95,85.15,89.46,90.75,90.12,90.37,89.91
1572.94,97.64,97.63,97.99,97.64,97.63,97.99,97.64,97.63,97.99,95.5,91.83,87.56,89.45,92.34,93.13,92.65,91.96,91.5,90.91,91.55,92.94,93.44,91.5,92.05,91.74,93.08,93.76,92.76,92.86,93.29,88.2,91.46,92.38,92.02,92.07,91.7
1494.66,99.59,99.24,99.4,99.59,99.24,99.4,99.59,99.24,99.4,97.56,95.68,94.46,95.47,96.31,96.77,96.63,95.79,95.88,95.6,95.87,96.4,96.6,96.28,96.48,96.26,96.63,96.69,96.49,96.25,96.78,94.5,95.9,95.98,95.43,95.38,95.49
1416.39,94.76,96.61,97.5,94.76,96.61,97.5,94.76,96.61,97.5,95,92.61,89.15,89.82,93.34,93,90.77,93.19,92.65,91.4,91.75,93.25,92.88,89.09,90.41,90.68,92.13,94.75,94.18,93.42,93.37,87.94,91.89,93.55,93.38,93.54,93.44
1338.11,96.38,97.72,97.5,96.38,97.72,97.5,96.38,97.72,97.5,95.6,92.38,88.59,89.48,92.91,92.98,91.77,92.48,91.84,90.85,90.87,92.53,92.44,89.42,90.49,91,92.15,93.92,93.03,93.19,93.16,87.88,91.64,92.71,93.32,93.46,92.95
1259.84,65.66,80.11,77.7,65.66,80.11,77.7,65.66,80.11,77.7,78.55,59.57,42.4,45.12,64.46,64.1,57.29,62.91,59.3,52.9,51.83,60.29,56.62,42.54,47.84,54.51,59.64,69.03,63.79,63.69,66.22,35.1,56.28,63.18,69.74,71.77,66.13
1181.57,91.55,94.94,94.89,91.55,94.94,94.89,91.55,94.94,94.89,91.61,85.11,79.08,80.11,86.23,86.16,84.34,85.99,84.28,82.99,83.17,85.67,85.29,80.04,81.9,83.48,85.17,88.63,87.23,86.7,87.52,76.88,83.98,86.61,88.32,88.76,87.12
1103.292,66.73,80.05,79.24,66.73,80.05,79.24,66.73,80.05,79.24,78.21,60.07,44.81,46.95,64.79,64.15,57.92,64.12,60.52,54.59,54.2,61.4,57.47,44.64,49.53,55.78,60.29,70.26,65.35,64.04,66.7,37.39,57.1,63.45,70.17,71.83,66.55
1025.02,83.13,89.32,89.77,83.13,89.32,89.77,83.13,89.32,89.77,84.83,73.7,64.17,65.81,75.72,75.43,72.66,76.78,73.88,70.93,71.15,75.4,73.6,65.1,68.16,71.55,74.5,81.19,78.42,76.93,78.54,60.6,72.32,76.81,80.25,81.02,78.14
946.744,88.13,91.92,91.75,88.13,91.92,91.75,88.13,91.92,91.75,86.33,75.43,68.08,69.39,77.46,77.59,76.69,77.88,75.49,73.41,73.99,76.99,75.37,70.03,72.12,75.03,76.75,81.75,79.4,78.06,79.95,64.75,74.45,77.36,81.1,81.67,78.7
868.47,84.94,90.1,89.44,84.94,90.1,89.44,84.94,90.1,89.44,83.67,70.62,61.68,63.09,73.11,73.36,72.24,73.45,70.7,68.24,68.5,72.09,70.23,64.29,66.52,70.06,72.26,78.15,74.92,73.62,76.01,58.2,69.42,72.83,77.56,78.05,74.44
790.196,91.52,94.26,93.96,91.52,94.26,93.96,91.52,94.26,93.96,88.31,79.65,73.58,75.04,80.62,81.24,81.42,82.12,79.86,78.67,79.08,81.53,80.65,76.72,78.07,80.08,81.68,85.35,83.53,82.33,83.89,72.52,79.59,81.78,84.38,84.7,82.48
711.922,76.75,83.67,84.03,76.75,83.67,84.03,76.75,83.67,84.03,74.31,55.8,46.54,48.03,59.58,60.41,61.85,61.29,57.05,55.65,56.4,59.15,56.6,53.23,54.75,58.88,60.36,67.82,63.97,60.52,65.19,43.33,56.23,58.7,65.66,65.9,60.96
650.42,92.41,93.43,94.55,92.41,93.43,94.55,92.41,93.43,94.55,87.22,78.52,74.63,76.3,80.08,80.78,83,82.33,80.04,80.03,80.87,82.1,80.63,79.32,80.02,80.82,82.02,85.18,84.24,81.98,83.6,74.12,80.28,80.8,82.46,82.94,80.91

File: FTIR_results.csv
DT13_LCNeg1_2019-06-04T15-59-48 (2),DT13_LCNeg1_2019-06-04T15-59-48,DT13_LCNeg1_2019-06-04T16-02-11 (2),DT13_LCNeg1_2019-06-04T16-02-11,DT13_LCNeg2_2019-06-04T16-05-00 (2),DT13_LCNeg2_2019-06-04T16-05-00,DT13_LCNeg2_2019-06-04T16-07-11 (2),DT13_LCNeg2_2019-06-04T16-07-11,DT13_LCNeg3_2019-06-04T16-07-51 (2),DT13_LCNeg3_2019-06-04T16-07-51,DT13_LCNeg3_2019-06-04T16-08-50,DT13_LCNeg4_2019-06-04T16-09-20,DT13_LCNeg5_2019-06-04T16-10-15 (2),DT13_LCNeg5_2019-06-04T16-10-15,DT14_LCNeg1_2019-06-04T16-17-14,DT14_LCNeg2_2019-06-04T16-16-09,DT14_LCNeg2_2019-06-04T16-16-49,DT14_LCNeg3_2019-06-04T16-15-04,DT14_LCNeg4_2019-06-04T16-14-04,DT14_LCNeg5_2019-06-04T16-13-07,DT15_LCNeg1_2019-06-04T16-18-14,DT15_LCNeg2_2019-06-04T16-19-04,DT15_LCNeg3_2019-06-04T16-19-47,DT15_LCNeg4_2019-06-04T16-21-48,DT15_LCNeg4_2019-06-04T16-22-22,DT15_LCNeg5_2019-06-04T16-23-33,DT16_LCB4_1_2019-06-04T16-27-56,DT16_LCB4_2_2019-06-04T16-27-08,DT16_LCB4_3_2019-06-04T16-26-19,DT16_LCB4_4_2019-06-04T16-25-16,DT16_LCB4_5_2019-06-04T16-24-37,DT17_LCB4_1_2019-06-04T16-28-55,DT17_LCB4_2_2019-06-04T16-29-51,DT17_LCB4_3_2019-06-04T16-30-34,DT17_LCB4_4_2019-06-04T16-31-13,DT17_LCB4_5_2019-06-04T16-31-52,DT18_LCB4_1_2019-06-04T16-36-01,DT18_LCB4_2_2019-06-04T16-35-21,DT18_LCB4_3_2019-06-04T16-34-38,DT18_LCB4_4_2019-06-04T16-33-59,DT18_LCB4_5_2019-06-04T16-32-49,DT19_LCB6_1_2019-06-04T16-37-08,DT19_LCB6_2_2019-06-04T16-37-46,DT19_LCB6_3_2019-06-04T16-38-27,DT20_LCB6_1_2019-06-04T16-40-45,DT20_LCB6_2_2019-06-04T16-40-04,DT20_LCB6_3_2019-06-04T16-39-21,DT21_LCB6_1_2019-06-04T16-41-39,DT21_LCB6_2_2019-06-04T16-42-18,DT21_LCB6_3_2019-06-04T16-43-00,DT22_LCB6_2_2019-06-04T16-45-11,DT22_LCComm_1_2019-06-04T16-45-52,DT22_LCComm_3_2019-06-04T16-43-54,DT23_LCComm_1_2019-06-04T16-46-50,DT23_LCComm_2_2019-06-04T16-47-27,DT23_LCComm_3_2019-06-04T16-48-12,DT24_LCComm_1_2019-06-04T16-50-21,DT24_LCComm_2_2019-06-04T16-49-46,DT24_LCComm_3_2019-06-04T16-49-10,DT25_Neg_1_2019-06-04T16-51-45,DT25_Neg_2_2019-06-04T16-53-17,DT25_Neg_3_2019-06-04T16-53-17,DT26_Neg_1_2019-06-04T16-56-32,DT26_Neg_2_2019-06-04T16-55-51,DT26_Neg_3_2019-06-04T16-54-35,DT27_Neg_1_2019-06-04T16-57-33,DT27_Neg_2_2019-06-04T16-58-19,DT27_Neg_3_2019-06-04T16-59-02,DT28_B4_1_2019-06-04T17-01-25,DT28_B4_2_2019-06-04T17-00-46,DT28_B4_3_2019-06-04T17-00-02,DT29_B4_1_2019-06-04T17-02-42,DT29_B4_2_2019-06-04T17-03-29,DT29_B4_3_2019-06-04T17-04-17,DT30_B4_1_2019-06-04T17-07-20,DT30_B4_2_2019-06-04T17-06-31,DT30_B4_3_2019-06-04T17-05-13,DT31_B6_1_2019-06-04T17-08-13,DT31_B6_2_2019-06-04T17-08-58,DT31_B6_3_2019-06-04T17-09-42,DT32_B6_1_2019-06-04T17-12-31,DT32_B6_2_2019-06-04T17-11-34,DT32_B6_3_2019-06-04T17-10-50,DT33_B6_1_2019-06-04T17-13-45,DT33_B6_2_2019-06-04T17-14-35,DT33_B6_3_2019-06-04T17-15-31,DT34_Comm_1_2019-06-04T17-16-46,DT34_Comm_2_2019-06-04T17-18-02,DT34_Comm_3_2019-06-04T17-19-49,DT35_Comm_1_2019-06-04T17-21-02,DT35_Comm_2_2019-06-04T17-21-47,DT35_Comm_3_2019-06-04T17-22-32,DT36_Comm_1_2019-06-04T17-24-37,DT36_Comm_2_2019-06-04T17-25-11,DT36_Comm_3_2019-06-04T17-25-55,DT37_Neg_1_2019-06-04T17-26-49,DT37_Neg_2_2019-06-04T17-27-32,DT37_Neg_3_2019-06-04T17-28-44,DT38_Neg_1_2019-06-04T17-29-39,DT38_Neg_2_2019-06-04T17-30-16,DT38_Neg_3_2019-06-04T17-30-54,DT39_Neg_1_2019-06-04T17-31-49,DT39_Neg_2_2019-06-04T17-32-30,DT39_Neg_3_2019-06-04T17-33-09,DT40_B4_1_2019-06-04T17-34-06,DT40_B4_2_2019-06-04T17-34-40,DT40_B4_3_2019-06-04T17-35-16,DT41_B4_1_2019-06-04T17-36-08,DT41_B4_2_2019-06-04T17-36-43,DT41_B4_3_2019-06-04T17-37-19,DT42_B4_1_2019-06-04T17-38-14,DT42_B4_2_2019-06-04T17-39-20,DT42_B4_3_2019-06-04T17-40-05,DT43_B6_1_2019-06-04T17-41-12,DT43_B6_2_2019-06-04T17-42-25,DT43_B6_3_2019-06-04T17-42-59,DT43_Comm_1_2019-06-04T17-41-12,DT44_B6_1_2019-06-04T17-44-15,DT44_B6_2_2019-06-04T17-44-49,DT44_B6_3_2019-06-04T17-45-26,DT45_B6_1_2019-06-04T17-46-16,DT45_B6_2_2019-06-04T17-46-48,DT45_B6_3_2019-06-04T17-47-25,DT46_Comm_1_2019-06-04T17-48-15,DT46_Comm_2_2019-06-04T17-48-51,DT46_Comm_3_2019-06-04T17-49-50,DT47_Comm_1_2019-06-04T17-50-40,DT47_Comm_2_2019-06-04T17-51-15,DT47_Comm_3_2019-06-04T17-51-48,DT48_Comm_1_2019-06-04T17-52-35,DT48_Comm_2_2019-06-04T17-53-12,DT48_Comm_3_2019-06-04T17-53-46,RW_PET_powder_2019-02-12T09-20-37,RW_PET_weather_2019-02-12T09-22-57,RW_low_crys_2019-02-12T09-05-58
102.88,102.88,99.38,99.38,106.12,106.12,112.24,112.24,113.79,113.79,116.06,117.13,117.83,117.83,105.31,104.55,104.49,103.44,101.49,100.75,105.45,107.05,106.47,108.62,109.1,98.78,101.54,101.02,100.77,99.67,100.06,102.21,102.83,103.58,103.34,103.55,99.07,99.8,99.29,98.6,104.03,99.66,100.38,100.52,101.29,101.49,101.4,101.85,101.83,102.1,98.99,98.96,102.43,99.4,99.51,99.32,99.75,99.86,99.81,98.18,99.1,99.1,97.09,96.18,100.77,96.12,97.29,96.41,98.83,97.5,97.3,96.8,97.38,98.36,96.8,96.45,96.8,96.25,97.85,97.15,96.88,96.1,96.52,98,98.25,97.8,96.64,95.62,95.55,96.9,96.78,96.95,96.45,97.07,95.32,96.3,96.3,98.07,95.5,97.42,98.51,97.55,98.17,96.8,96.63,95.84,97.63,95.9,96.61,97.68,95.79,95.83,95.98,95.16,95.69,96.73,95.16,95.55,96.26,96.02,95.93,97.55,97.58,96.41,97.02,95.85,95.72,97.56,97.98,96.54,96.38,97.68,95.8,96.71,99.67
100.5,100.5,96.84,96.84,102.38,102.38,110.01,110.01,111.51,111.51,112.91,113.99,112.51,112.51,105.66,103.82,105.25,103.56,100.89,100.17,106.08,107.73,107.62,110.2,109.35,96.82,99.71,99.77,99.64,96.78,93.07,100.99,99.1,100.06,100.71,101.8,96.82,97.24,97.63,96,100.98,97.18,98.42,99.19,100.25,100.14,99.73,99.75,100.45,100.67,97.08,96.85,100.56,95.77,96.77,97.03,97.15,97.3,96.62,97.46,99.19,99.19,97.02,95.89,102.13,96.06,97.24,96.38,99.04,97.45,97.4,97,97.66,98.52,96.56,96.41,97.4,96.08,97.92,97.17,96.7,95.84,96.35,97.98,98.66,98.09,96.83,95.23,95.23,96.83,96.68,97.06,96.33,97.01,95.45,96.31,96.42,97.86,95.14,97.15,98.41,97.43,97.82,96.81,96.45,95.71,97.72,95.83,96.7,97.65,95.78,95.46,95.73,94.97,95.57,96.57,94.97,95.38,96.24,95.85,95.72,97.41,97.5,96.01,96.8,95.96,95.49,97.63,98.03,96.42,96.44,97.83,95.69,96.47,98.38
100.92,100.92,97.54,97.54,102.13,102.13,108.73,108.73,109.93,109.93,111.85,112.65,111.53,111.53,104.85,103.56,104.33,103.07,100.83,100.44,105.31,106.57,106.19,108.11,107.25,97.05,99.84,99.47,99.4,96.97,95.06,101.12,98.78,99.85,100.32,101.13,96.9,97.62,98.07,96.37,100.57,97.42,98.47,99,100,100.38,100.12,99.76,100.33,100.2,97.11,96.91,100.48,96.28,96.95,96.98,96.58,96.65,96.56,96.86,98.9,98.9,97.04,95.85,102.14,96.1,97.25,96.51,98.79,97.37,97.19,97.01,97.54,98.48,96.66,96.46,97.19,96.16,98.1,97.3,96.76,95.88,96.45,98.05,98.69,98.26,96.89,95.37,95.5,96.94,96.94,97.22,96.49,96.99,95.71,96.44,96.67,98.11,95.26,97.4,98.45,97.49,97.81,96.95,96.53,95.71,97.71,95.88,96.72,97.68,95.85,95.49,95.82,94.98,95.57,96.8,94.98,95.38,96.3,95.97,95.6,97.46,97.28,95.91,96.86,95.96,95.48,97.46,97.88,96.39,96.48,97.84,95.64,96.57,99.09
[...]
48.38,48.38,56,56,47.96,47.96,67.44,67.44,66.08,66.08,58.16,57.34,47.85,47.85,63.23,50.58,65.6,58.09,74.84,72.65,77.5,69.58,74.83,110.89,57.68,47.88,52.02,63.02,75.94,53.94,35.59,65.16,46.11,38.39,59.62,59.38,49.48,45.21,52.6,57.99,53.76,47.24,46.28,55.07,50.95,36.68,42.14,49.54,54.67,64.72,59.27,58.63,61.91,27.43,50.67,57.84,65.38,67.68,61.22,75.71,72.29,72.29,73.32,65.3,81.21,62.24,66.12,58.21,76.48,68.41,69.3,60.96,57.08,62.44,70.69,71.99,64.89,70.33,81.31,72.1,58.67,55.24,66.43,74.73,80.72,72.52,62.67,59.17,59.64,70.99,68.3,72.82,61.16,56.14,55.23,62.87,64.57,77.77,60.83,79.16,77.17,75.47,70.75,69.31,66.35,61.86,76.83,63.43,69.45,70.94,61.22,65.44,65.85,59.96,61.29,74.68,59.96,62.3,68.81,60.92,61.92,72.22,64.94,59.24,67.22,70.84,62.28,78.8,80.89,68.11,69.26,74.55,64.6,74.64,31.28
72.65,72.65,77.5,77.5,73.53,73.53,82.7,82.7,82.09,82.09,79.48,79.11,74.23,74.23,88.2,84.9,88.76,86.49,91.04,90.97,92.1,92.23,92.12,103.62,88.16,73.61,74.19,79.61,85.79,74.72,66.69,80.75,70.66,67.97,76.9,76.76,72.9,72.23,75.18,77.26,74.73,72.36,72.89,76.14,74.39,68.04,70.49,73.58,75.73,81.31,78.75,77.43,79.22,62.96,73.42,76.76,80.74,81.31,78.36,84.75,82.29,82.29,83.7,78.16,88.05,76.77,78.99,75,85.18,80.1,80.48,76.39,74.46,77.31,81.77,82.15,78.32,81.19,88.14,82.44,75.12,72.75,78.45,84.2,88.18,83.42,76.89,74.7,75.02,81.49,79.87,83.01,75.89,73.62,73.52,76.92,78.24,86.28,75.58,86.95,86.26,84.41,82.12,81.4,79.14,76.33,85.62,77.26,80.62,82.31,75.94,78.4,78.73,74.93,75.84,84.36,74.93,75.84,80.24,76.39,75.91,82.68,78.2,74.52,79.64,82.07,76.36,86.63,87.53,79.95,80.73,84.69,78.73,83.93,67.17
72.64,72.64,76.11,76.11,71.51,71.51,80.79,80.79,80.11,80.11,79,78.61,72.77,72.77,88.95,87.27,89.2,87.94,90.85,91.83,92.3,94.19,91.26,99.56,88.55,72.05,71.59,76.36,82.5,70.74,64.71,77.47,67.75,66.33,72.79,73.51,70.53,72.6,75.18,75.07,71.58,71.11,72.14,73.85,72.1,69.93,70.77,73.09,73.99,79.03,77.27,74.16,76.8,63.36,71.26,73.06,76.66,76.98,74.19,81.94,79.43,79.43,81.77,75.38,86.35,74.09,76.35,72.43,83.06,77.32,77.59,73.98,71.75,75.29,79.68,79.75,75.18,78.53,86.29,79.92,72.47,69.43,75.22,81.78,86.71,81.12,73.9,71.91,71.94,79.18,77.18,80.68,73.03,71.15,70.91,73.56,75.41,84.69,72.3,85.04,84.96,82.89,80.4,79.92,76.66,73.71,83.9,74.48,78.04,79.88,72.83,75.56,76.18,72.02,73.19,82.76,72.02,72.42,77.38,74.21,72.5,80.38,75.65,71.33,76.59,79.97,73.21,84.57,85.36,77.23,78.34,82.54,75.14,80.91,67.03
80.61,80.61,82.95,82.95,79.75,79.75,86.23,86.23,85.46,85.46,85.26,84.61,80.42,80.42,92.58,92.18,93.09,92.41,93.43,94.55,94.84,96.25,93.73,98.66,91.95,80.42,79.91,83.42,87.22,78.52,74.63,84.3,76.62,76.3,80.08,80.78,78.85,80.8,83,82.33,80.04,80.03,80.87,82.1,80.63,79.32,80.02,80.82,82.02,85.18,84.24,81.98,83.6,74.12,80.28,80.8,82.46,82.94,80.91,86.38,84.72,84.72,86.85,81.84,90.61,81.06,83.16,80.65,87.77,83.28,82.91,80.93,80.7,82.34,84.64,83.94,82.12,83.92,89.95,85.03,80.12,78.07,81.05,85.72,90.43,86.51,80.25,78.85,79.14,83.86,82.95,86.02,79.7,79.66,79.63,80.23,81.78,89.23,79.46,88.99,89.73,87.27,86.79,86.81,82.9,80.49,88.1,80.6,83.41,85.17,79.69,81.5,82.05,78.61,79.22,87.68,78.61,78.65,82.37,80.93,79.01,85.22,81.44,78.11,82.46,84.57,79.21,87.94,88.62,82.78,83.42,87.38,81.2,84.38,77.99

File: Proteomics.csv
Wavenumber (cm^-1)
3999.43
3988.25
3977.07
3965.89
3954.71
3943.52
3932.34
3921.16
3909.98
3898.8
3887.61
3876.43
3865.25
3854.07
3842.89
3831.7
3820.52
3809.34
3798.16
3786.98
3775.79
3764.61
3753.43
3742.25
3731.07
3719.88
3708.7
3697.52
3686.34
3675.16
3663.97
3652.79
3641.61
3630.43
3619.25
3608.06
3596.88
3585.7
3574.52
3563.33
3552.15
3540.97
3529.79
3518.61
3507.42
3496.24
3485.06
3473.88
3462.7
3451.51
3440.33
3429.15
3417.97
3406.79
3395.6
3384.42
3373.24
3362.06
3350.88
3339.69
3328.51
3317.33
3306.15
3294.97
3283.78
3272.6
3261.42
3250.24
3239.06
3227.87
3216.69
3205.51
3194.33
3183.15
3171.96
3160.78
3149.6
3138.42
3127.24
3116.05
3104.87
3093.69
3082.51
3071.33
3060.14
3048.96
3037.78
3026.6
3015.42
3004.23
2993.05
2981.87
2970.69
2959.51
2948.32
2937.14
2925.96
2914.78
2903.6
2892.41
2881.23
2870.05
2858.87
2847.69
2836.5
2825.32
2814.14
2802.96
2791.78
2780.59
2769.41
2758.23
2747.05
2735.87
2724.68
2713.5
2702.32
2691.14
2679.96
2668.77
2657.59
2646.41
2635.23
2624.05
2612.86
2601.68
2590.5
2579.32
2568.14
2556.95
2545.77
2534.59
2523.41
2512.23
2501.04
2489.86
2478.68
2467.5
2456.32
2445.13
2433.95
2422.77
2411.59
2400.41
2389.22
2378.04
2366.86
2355.68
2344.5
2333.31
2322.13
2310.95
2299.77
2288.59
2277.4
2266.22
2255.04
2243.86
2232.68
2221.49
2210.31
2199.13
2187.95
2176.77
2165.58
2154.4
2143.22
2132.04
2120.86
2109.67
2098.49
2087.31
2076.13
2064.95
2053.76
2042.58
2031.4
2020.22
2009.04
1997.85
1986.67
1975.49
1964.31
1953.13
1941.94
1930.761
1919.58
1908.4
1897.21
1886.03
1874.85
1863.67
1852.49
1841.3
1830.12
1818.94
1807.76
1796.58
1785.39
1774.21
1763.03
1751.85
1740.67
1729.48
1718.3
1707.12
1695.94
1684.76
1673.57
1662.39
1651.21
1640.03
1628.85
1617.66
1606.48
1595.3
1584.12
1572.94
1561.75
1550.57
1539.39
1528.21
1517.03
1505.84
1494.66
1483.48
1472.3
1461.12
1449.93
1438.75
1427.57
1416.39
1405.21
1394.02
1382.84
1371.66
1360.48
1349.3
1338.11
1326.93
1315.75
1304.57
1293.39
1282.2
1271.02
1259.84
1248.66
1237.48
1226.29
1215.11
1203.93
1192.75
1181.57
1170.38
1159.2
1148.02
1136.84
1125.66
1114.47
1103.292
1092.11
1080.93
1069.75
1058.56
1047.38
1036.2
1025.02
1013.84
1002.65
991.472
980.29
969.108
957.926
946.744
935.562
924.38
913.198
902.016
890.834
879.652
868.47
857.288
846.106
834.924
823.742
812.56
801.378
790.196
779.014
767.832
756.65
745.468
734.286
723.104
711.922
700.74
689.557
678.375
667.193
656.011
650.42