Folder: PET-Plastisphere/5_RW_thesis/Degradation_FTIR (part 2)

File: Raw_plastics.csv
Wavenumber (cm^-1),Powder,Weathered powder,Low crystallinity pieces
3999.43,95.76,96.61,99.55
3988.25,95.75,96.65,99.57
3977.07,95.81,96.58,99.43
3965.89,95.72,96.58,99.53
3954.71,95.8,96.59,99.61
3943.52,95.76,96.66,99.54
3932.34,95.74,96.64,99.47
3921.16,95.66,96.61,99.49
3909.98,95.78,96.58,99.64
3898.8,95.98,96.8,99.46
3887.61,95.67,96.66,99.58
3876.43,95.94,96.66,99.61
3865.25,95.83,96.7,99.55
3854.07,95.71,96.71,99.46
3842.89,95.74,96.54,99.68
3831.7,96.02,96.73,99.62
3820.52,95.75,96.64,99.61
3809.34,95.71,96.51,99.69
3798.16,95.82,96.77,99.59
3786.98,95.7,96.54,99.58
3775.79,95.72,96.71,99.7
3764.61,95.83,96.68,99.63
3753.43,95.57,96.3,99.79
3742.25,96.07,96.92,99.65
3731.07,96.09,96.81,99.63
3719.88,95.93,96.65,99.65
3708.7,95.94,96.73,99.57
3697.52,95.93,96.76,99.65
3686.34,95.93,96.82,99.52
3675.16,95.91,96.56,99.41
3663.97,95.71,96.71,99.32
3652.79,95.49,96.42,99.43
3641.61,95.73,96.53,99.04
3630.43,95.44,96.49,98.96
3619.25,95.69,96.5,98.96
3608.06,95.72,96.63,98.99
3596.88,95.77,96.56,98.82
3585.7,95.85,96.88,98.76
3574.52,95.78,96.7,98.87
3563.33,95.85,96.76,98.8
3552.15,95.73,96.54,98.54
3540.97,95.64,96.54,98.56
3529.79,95.74,96.73,98.54
3518.61,95.76,96.56,98.5
3507.42,95.94,96.69,98.65
3496.24,95.89,96.58,98.44
3485.06,95.78,96.63,98.75
3473.88,95.71,96.56,98.61
3462.7,95.74,96.87,98.62
3451.51,95.75,96.53,98.39
3440.33,95.39,96.48,97.87
3429.15,95.53,96.49,98.06
3417.97,95.3,96.3,97.86
3406.79,95.55,96.49,98.12
3395.6,95.62,96.55,98.3
3384.42,95.8,96.59,98.44
3373.24,95.77,96.55,98.45
3362.06,95.81,96.55,98.61
3350.88,95.74,96.49,98.63
3339.69,95.68,96.59,98.51
3328.51,95.62,96.48,98.6
3317.33,95.74,96.57,98.54
3306.15,95.68,96.61,98.67
3294.97,95.68,96.48,98.7
3283.78,95.65,96.54,98.74
3272.6,95.81,96.55,98.73
3261.42,95.71,96.56,98.82
3250.24,95.64,96.5,98.83
3239.06,95.7,96.49,98.79
3227.87,95.72,96.56,98.9
3216.69,95.74,96.63,98.97
3205.51,95.83,96.56,98.94
3194.33,95.75,96.58,98.99
3183.15,95.71,96.57,99.02
3171.96,95.63,96.64,99.13
3160.78,95.71,96.59,99.12
3149.6,95.68,96.6,99.01
3138.42,95.63,96.59,99.04
3127.24,95.6,96.52,98.96
3116.05,95.44,96.4,99.05
3104.87,95.35,96.39,98.82
3093.69,95.4,96.4,98.88
3082.51,95.26,96.33,98.62
3071.33,95.22,96.25,98.61
3060.14,95.13,96.22,98.66
3048.96,95.25,96.34,98.72
3037.78,95.46,96.4,99.17
3026.6,95.43,96.38,99.1
3015.42,95.14,96.24,98.87
3004.23,94.85,96.04,98.45
2993.05,94.73,95.98,97.92
2981.87,94.26,95.73,97.12
2970.69,93.56,95.23,95.76
2959.51,93.29,95.18,93.99
2948.32,93.79,95.49,92.59
2937.14,94.24,95.76,91.36
2925.96,93.81,95.68,90.28
2914.78,92.83,95.11,91.58
2903.6,93.09,95.23,93.64
2892.41,93.57,95.45,94.07
2881.23,93.98,95.69,95.18
2870.05,94.43,95.82,95.4
2858.87,94.3,95.86,93.92
2847.69,93.3,95.42,94.19
2836.5,94.24,95.86,97.23
2825.32,94.79,96.1,98.19
2814.14,94.92,96.16,98.46
2802.96,95.03,96.14,98.6
2791.78,95.13,96.21,98.87
2780.59,95.26,96.3,98.98
2769.41,95.29,96.34,98.98
2758.23,95.33,96.33,99.01
2747.05,95.36,96.35,99.12
2735.87,95.37,96.34,99.09
2724.68,95.42,96.37,99.18
2713.5,95.49,96.4,99.21
2702.32,95.49,96.4,99.22
2691.14,95.49,96.42,99.29
2679.96,95.5,96.4,99.24
2668.77,95.46,96.39,99.3
2657.59,95.38,96.32,99.25
2646.41,95.41,96.33,99.31
2635.23,95.44,96.32,99.33
2624.05,95.42,96.35,99.34
2612.86,95.56,96.37,99.48
2601.68,95.57,96.41,99.57
2590.5,95.56,96.46,99.58
2579.32,95.64,96.55,99.65
2568.14,95.68,96.51,99.65
2556.95,95.69,96.5,99.62
2545.77,95.65,96.56,99.63
2534.59,95.82,96.51,99.67
2523.41,95.72,96.51,99.73
2512.23,95.78,96.59,99.65
2501.04,95.81,96.61,99.78
2489.86,95.87,96.57,99.8
2478.68,95.87,96.61,99.75
2467.5,95.82,96.59,99.85
2456.32,95.9,96.59,99.8
2445.13,95.9,96.74,99.85
2433.95,95.92,96.61,99.74
2422.77,95.91,96.63,99.72
2411.59,95.81,96.71,99.59
2400.41,95.8,96.66,99.58
2389.22,95.81,96.64,99.47
2378.04,95.78,96.63,99.44
2366.86,96,96.83,99.31
2355.68,95.97,96.8,99.16
2344.5,95.73,96.59,99.38
2333.31,95.94,96.65,99.37
2322.13,95.6,96.43,99.28
2310.95,95.87,96.67,99.56
2299.77,95.81,96.54,99.7
2288.59,95.66,96.51,99.74
2277.4,95.97,96.82,100.11
2266.22,96.28,96.75,100.34
2255.04,96.21,96.86,100.57
2243.86,96.46,97.02,100.43
2232.68,96.48,97.06,100.66
2221.49,96.78,97.1,100.79
2210.31,96.66,97.35,101.18
2199.13,96.69,97.27,100.92
2187.95,97.05,97.69,101.48
2176.77,97.05,97.56,101.27
2165.58,97.51,97.44,101.67
2154.4,97.54,98.06,101.19
2143.22,97.34,97.67,100.81
2132.04,96.93,97.61,100.24
2120.86,96.61,97.15,100.1
2109.67,96.27,96.94,100.12
2098.49,96.48,97.07,100.24
2087.31,96.4,97.14,100.23
2076.13,96.5,96.97,100.26
2064.95,96.69,97.14,100.56
2053.76,96.93,97.55,100.93
2042.58,97.61,97.78,101.49
2031.4,97.74,97.71,101.04
2020.22,97.5,97.78,100.7
2009.04,97.36,98.17,101.13
1997.85,97.11,97.62,100.58
1986.67,97.3,97.58,100.58
1975.49,97.2,97.89,101.32
1964.31,96.98,97.62,100.3
1953.13,96.93,97.46,99.8
1941.94,96.6,97.38,99.76
1930.761,96.83,97.34,99.75
1919.58,96.83,97.55,99.93
1908.4,97,97.57,99.98
1897.21,97.14,97.52,99.92
1886.03,97,97.57,99.82
1874.85,97.15,97.64,99.85
1863.67,97.18,97.65,99.78
1852.49,97.09,97.67,99.63
1841.3,96.98,97.57,99.27
1830.12,96.8,97.38,98.91
1818.94,96.83,97.46,98.82
1807.76,96.83,97.54,98.66
1796.58,97.01,97.62,98.54
1785.39,97.03,97.67,98.18
1774.21,96.99,97.74,97.88
1763.03,96.87,97.78,97.06
1751.85,95.88,97.1,94.99
1740.67,88.78,92.41,84.24
1729.48,77.77,85.06,61.44
1718.3,68.98,78.43,45.06
1707.12,67.46,77.3,43.22
1695.94,75.66,82.89,62.15
1684.76,80.12,85.8,72.01
1673.57,84.36,88.6,79.47
1662.39,87.08,90.53,84.01
1651.21,89.98,92.48,88.84
1640.03,90.39,92.71,90.75
1628.85,91.25,93.33,92.63
1617.66,91.44,93.55,93.11
1606.48,92.12,94.02,94
1595.3,93.11,94.69,95.67
1584.12,92.87,94.47,94.84
1572.94,92.39,94.31,92.9
1561.75,93.33,94.78,96
1550.57,94.27,95.46,96.85
1539.39,94.71,95.81,97.14
1528.21,94.5,95.66,96.9
1517.03,94.85,95.95,97.04
1505.84,91.44,93.59,91.08
1494.66,94.86,95.95,97.03
1483.48,94.61,95.73,97.02
1472.3,92.07,94,93.75
1461.12,91.75,94.15,89.54
1449.93,91.25,93.96,84.93
1438.75,91.91,94.41,89.25
1427.57,94.42,95.91,94.31
1416.39,92.41,94.27,91.3
1405.21,84.77,89.57,75.79
1394.02,91.27,93.79,87.46
1382.84,92.29,94.33,89.06
1371.66,91.34,94.01,85.49
1360.48,93.7,95.43,92.21
1349.3,92.57,94.28,93.44
1338.11,85.17,88.36,90.46
1326.93,93.35,95.06,92.3
1315.75,92.56,94.84,87.68
1304.57,89.9,93.25,82.13
1293.39,84.74,89.91,70.06
1282.2,79.48,86.14,58.77
1271.02,75.22,82.37,47.83
1259.84,69.47,78.45,38.42
1248.66,66.49,75.94,35.09
1237.48,63.8,74.19,29.02
1226.29,67.02,76.61,37.7
1215.11,72.35,80.07,52.99
1203.93,77.9,83.81,66.2
1192.75,82.89,87.26,76.15
1181.57,85.65,89.31,81.81
1170.38,86.56,90.27,80.35
1159.2,89.6,92.28,86.66
1148.02,88.1,91.56,82.46
1136.84,82.39,87.43,71.99
1125.66,74.96,81.21,58.58
1114.47,71.53,79.32,46.19
1103.292,68.66,77.26,40.79
1092.11,64.64,74.82,30.23
1080.93,65.44,75.47,32.36
1069.75,70.4,78.78,46.14
1058.56,75.19,81.92,58.11
1047.38,76.35,82.97,60
1036.2,77.34,83.91,60.92
1025.02,77.64,83.59,65.94
1013.84,69.19,78.06,40.99
1002.65,76.91,83.03,62.53
991.472,79.59,84.83,69.53
980.29,80.28,85.31,70.19
969.108,78.55,83.79,67.22
957.926,80.67,85.32,65.89
946.744,82.52,86.64,68.71
935.562,83.62,87.43,74.82
924.38,84.61,88.15,77.87
913.198,85.31,88.68,80.37
902.016,84.12,88.16,76.42
890.834,84.14,88.39,75.18
879.652,81.91,87.08,69.33
868.47,76.68,82.94,61.45
857.288,81.09,85.75,73.11
846.106,80.11,84.82,73.69
834.924,81.73,86.13,75.56
823.742,83.63,87.56,78.33
812.56,84.48,88.21,79.15
801.378,85.34,88.78,80.08
790.196,83.34,87.61,76.35
779.014,86.7,89.65,85.63
767.832,88.93,91.23,89.56
756.65,91.24,92.95,93.13
745.468,92.83,94.3,91.34
734.286,78.76,85.08,53.29
723.104,59.92,70.14,18.92
711.922,65.48,74.25,46.11
700.74,71.02,77.9,58.09
689.557,75.69,81.24,67.97
678.375,77.25,82.69,70.58
667.193,79.96,84.39,75.17
656.011,80.87,84.95,76.79
650.42,81.2,84.38,77.99